

 Program UNIPLOT                         version 05.29.00
 _______________
 (c) Fugro Engineers B.V., Nootdorp, The Netherlands


 ASCII representation of data plotted on a graph.

 This ASCII file presents data interpolated to values per fixed depth interval.
 The data are corrected for the depth-offset differences between the various 
 transducers in the penetrometer.

 The records at the start of penetration may include no values or anomalous
 values where a depth offset implies incomplete penetration of a particular
 sensor into the ground.

 The records at the end of penetration may include no values for data channels
 where the transducer did not reach this depth.

 UNICAS data file          : CPT_WFS1_01.000                         
 Output using command file : Qc+Qt+Qn+Fs+U2+Rf+Bq_Seafloor.ucf

 ASCII file created at : date          :03-Jul-2015
                         time          :13:19:13
 Project number                        :N6016/02 (2)                                                                                        
 Date of testing                       :10-May-2015                                                                                         
 Location                              :CPT_WFS1_1                                                                                          
 Test name                             :CPT_WFS1_1
 Penetrometer                          :CP15-CF75PB20SN2
 Serial no                             :1701-2483

 Table description:
 Column id                             :Parameter name
 ___________________________________________________________________________________
 Rec                                   :Record ID, Record ID [-]
 Depth                                 :Depth, Depth [m]
 Time                                  :Time, Time [s]
 Cone                                  :Cone Resistance, Cone Resistance [MPa]
 Qnet-                                 :Net Cone Resistance, Net Cone Resistance [MPa], unit weight as specified in ground model
 qt                                    :Total Cone Resistance, Total Cone Resistance [MPa]
 Friction                              :Sleeve Friction, Sleeve Friction [MPa]
 Pore 2                                :Porewater Pressure, Porewater Pressure at Shoulder [MPa]
 Bq                                    :Porewater Pressure Ratio, Porewater Pressure Ratio [-], unit weight as specified in ground model
 Fric_ratio                            :Friction Ratio, Friction Ratio [%]


 Data table:
  Rec    Depth      Time       Cone      Qnet-         qt   Friction     Pore 2         Bq Fric_ratio           
   No        m         s        MPa        MPa        MPa        MPa        MPa          -          %           
    1    0.000   1462.00     0.0013     0.0016     0.0016                           0.5650                      
    2    0.020   1463.06     0.0222     0.0223     0.0227                0.0014     0.0421                      
    3    0.040   1464.17     0.0767     0.0765     0.0773                0.0017     0.0157                      
    4    0.060   1465.13     0.1536     0.1533     0.1545     0.0010     0.0019     0.0092     0.9465           
    5    0.080   1466.09     0.2276     0.2269     0.2285     0.0014     0.0023     0.0059     0.7035           
    6    0.100   1467.15     0.3002     0.2992     0.3012     0.0021     0.0025     0.0047     0.7987           
    7    0.120   1468.11     0.4285     0.4270     0.4294     0.0028     0.0021     0.0024     0.7938           
    8    0.140   1469.17     0.5790     0.5770     0.5798     0.0036     0.0020     0.0011     0.7120           
    9    0.160   1470.25     0.7744     0.7719     0.7751     0.0049     0.0018     0.0003     0.7177           
   10    0.180   1471.30     1.0040     1.0011     1.0047     0.0059     0.0015    -0.0003     0.6602           
   11    0.200   1472.22     1.1855     1.1822     1.1862     0.0067     0.0019    -0.0002     0.5989           
   12    0.220   1473.27     1.3361     1.3326     1.3370     0.0074     0.0025     0.0000     0.5683           
   13    0.240   1474.30     1.4550     1.4515     1.4563     0.0075     0.0033     0.0005     0.5310           
   14    0.260   1475.35     1.5698     1.5662     1.5714     0.0077     0.0039     0.0007     0.5033           
   15    0.280   1476.33     1.6893     1.6854     1.6910     0.0081     0.0043     0.0008     0.4946           
   16    0.300   1477.45     1.8209     1.8166     1.8226     0.0087     0.0041     0.0006     0.4893           
   17    0.320   1478.56     1.9891     1.9845     1.9909     0.0095     0.0042     0.0005     0.4930           
   18    0.340   1479.64     2.1898     2.1848     2.1916     0.0102     0.0044     0.0004     0.4802           
   19    0.360   1480.65     2.3526     2.3473     2.3545     0.0106     0.0045     0.0004     0.4611           
   20    0.380   1481.58     2.4889     2.4833     2.4909     0.0113     0.0047     0.0004     0.4594           
   21    0.400   1482.73     2.6160     2.6100     2.6180     0.0119     0.0048     0.0003     0.4579           
   22    0.420   1483.72     2.7144     2.7081     2.7165     0.0127     0.0049     0.0003     0.4733           
   23    0.440   1484.75     2.7705     2.7638     2.7726     0.0138     0.0050     0.0002     0.5007           
   24    0.460   1485.79     2.8716     2.8645     2.8737     0.0149     0.0052     0.0001     0.5269           
   25    0.480   1487.00     3.0551     3.0478     3.0574     0.0161     0.0057     0.0002     0.5418           
   26    0.500   1488.00     3.2143     3.2068     3.2168     0.0175     0.0063     0.0003     0.5549           
   27    0.520   1489.09     3.3579     3.3503     3.3607     0.0193     0.0067     0.0004     0.5820           
   28    0.540   1490.09     3.4560     3.4481     3.4589     0.0214     0.0068     0.0004     0.6254           
   29    0.560   1491.11     3.5268     3.5184     3.5296     0.0234     0.0067     0.0003     0.6685           
   30    0.580   1492.08     3.5715     3.5626     3.5742     0.0254     0.0066     0.0002     0.7118           
   31    0.600   1493.15     3.6066     3.5973     3.6093     0.0268     0.0065     0.0001     0.7452           
   32    0.620   1494.21     3.6251     3.6157     3.6281     0.0274     0.0072     0.0002     0.7550           
   33    0.640   1495.35     3.6508     3.6413     3.6541     0.0277     0.0080     0.0004     0.7602           
   34    0.660   1544.86     3.7736     3.7639     3.7771     0.0282     0.0085     0.0005     0.7641           
   35    0.680   1667.01     3.9888     3.9789     3.9925     0.0278     0.0090     0.0005     0.7551           
   36    0.700   1716.58     4.2686     4.2583     4.2723     0.0277     0.0089     0.0005     0.6613           
   37    0.720   1717.56     4.6033     4.5926     4.6070     0.0289     0.0089     0.0004     0.6364           
   38    0.740   1718.69     4.9608     4.9496     4.9644     0.0304     0.0087     0.0002     0.6240           
   39    0.760   1719.71     5.3154     5.3039     5.3191     0.0328     0.0088     0.0002     0.6311           
   40    0.780   1720.79     5.7133     5.7014     5.7170     0.0363     0.0091     0.0002     0.6480           
   41    0.800   1721.84     6.0224     6.0102     6.0262     0.0392     0.0095     0.0002     0.6612           
   42    0.820   1723.00     6.1847     6.1722     6.1886     0.0412     0.0097     0.0002     0.6724           
   43    0.840   1724.00     6.2049     6.1922     6.2090     0.0432     0.0099     0.0002     0.6964           
   44    0.860   1725.07     6.1893     6.1763     6.1935     0.0451     0.0100     0.0002     0.7279           
   45    0.880   1726.11     6.1753     6.1619     6.1795     0.0460     0.0103     0.0002     0.7454           
   46    0.900   1727.08     6.1558     6.1422     6.1602     0.0460     0.0106     0.0002     0.7476           
   47    0.920   1728.08     6.1145     6.1008     6.1192     0.0459     0.0112     0.0003     0.7498           
   48    0.940   1729.19     6.0641     6.0502     6.0690     0.0448     0.0118     0.0004     0.7364           
   49    0.960   1730.22     5.9821     5.9679     5.9871     0.0427     0.0121     0.0004     0.7117           
   50    0.980   1731.42     5.9118     5.8974     5.9170     0.0410     0.0122     0.0004     0.6916           
   51    1.000   1737.31     5.9753     5.9604     5.9804     0.0401     0.0122     0.0004     0.6782           
   52    1.020   1743.43     6.0458     6.0305     6.0509     0.0401     0.0122     0.0003     0.6785           
   53    1.040   1746.59     6.2094     6.1939     6.2147     0.0413     0.0127     0.0004     0.6734           
   54    1.060   1747.44     6.4960     6.4803     6.5015     0.0427     0.0131     0.0004     0.6653           
   55    1.080   1748.49     6.8143     6.7983     6.8199     0.0444     0.0130     0.0004     0.6589           
   56    1.100   1749.65     7.0835     7.0669     7.0889     0.0462     0.0129     0.0003     0.6602           
   57    1.120   1750.63     7.2726     7.2556     7.2780     0.0476     0.0127     0.0002     0.6598           
   58    1.140   1751.75     7.4389     7.4213     7.4441     0.0482     0.0125     0.0002     0.6531           
   59    1.160   1752.90     7.6398     7.6220     7.6452     0.0491     0.0132     0.0002     0.6488           
   60    1.180   1753.93     7.9081     7.8900     7.9136     0.0504     0.0133     0.0002     0.6463           
   61    1.200   1754.84     8.2280     8.2097     8.2337     0.0521     0.0137     0.0002     0.6404           
   62    1.220   1755.84     8.5973     8.5786     8.6030     0.0548     0.0138     0.0002     0.6438           
   63    1.240   1756.94     9.0125     8.9936     9.0184     0.0581     0.0140     0.0002     0.6536           
   64    1.260   1757.95     9.3285     9.3092     9.3344     0.0606     0.0140     0.0002     0.6600           
   65    1.280   1759.08     9.5970     9.5774     9.6030     0.0631     0.0142     0.0002     0.6664           
   66    1.300   1760.22     9.8049     9.7848     9.8108     0.0655     0.0141     0.0001     0.6729           
   67    1.320   1761.29     9.9424     9.9220     9.9484     0.0706     0.0144     0.0001     0.7133           
   68    1.340   1762.36    10.0098     9.9892    10.0160     0.0741     0.0150     0.0001     0.7426           
   69    1.360   1811.04     9.8698     9.8491     9.8763     0.0757     0.0157     0.0002     0.7557           
   70    1.380   1864.97     9.7072     9.6864     9.7140     0.0758     0.0164     0.0002     0.7571           
   71    1.400   1918.91     9.5446     9.5237     9.5517     0.0751     0.0171     0.0003     0.7498           
   72    1.420   1946.38     9.4319     9.4108     9.4392     0.0740     0.0174     0.0003     0.7829           
   73    1.440   1947.44     9.3904     9.3690     9.3978     0.0721     0.0174     0.0003     0.7666           
   74    1.460   1948.43     9.3831     9.3612     9.3904     0.0699     0.0176     0.0003     0.7450           
   75    1.480   1949.72     9.3742     9.3519     9.3815     0.0677     0.0176     0.0003     0.7217           
   76    1.500   1950.72     9.3581     9.3355     9.3655     0.0655     0.0179     0.0003     0.7001           
   77    1.520   1951.68     9.3901     9.3672     9.3976     0.0637     0.0181     0.0003     0.6802           
   78    1.540   1952.72     9.5201     9.4970     9.5278     0.0634     0.0182     0.0003     0.6701           
   79    1.560   1953.71     9.7380     9.7145     9.7457     0.0642     0.0181     0.0003     0.6647           
   80    1.580   1954.80    10.1127    10.0888    10.1204     0.0666     0.0185     0.0003     0.6667           
   81    1.600   1955.95    10.5363    10.5120    10.5440     0.0690     0.0184     0.0002     0.6618           
   82    1.620   1956.88    10.8348    10.8102    10.8426     0.0716     0.0187     0.0002     0.6653           
   83    1.640   1958.04    11.0108    10.9860    11.0188     0.0739     0.0192     0.0002     0.6741           
   84    1.660   1959.14    11.1399    11.1148    11.1480     0.0764     0.0192     0.0002     0.6885           
   85    1.680   1960.07    11.2291    11.2036    11.2372     0.0787     0.0193     0.0002     0.7026           
   86    1.700   1961.15    11.3418    11.3160    11.3500     0.0797     0.0195     0.0002     0.7047           
   87    1.720   1962.25    11.4376    11.4115    11.4459     0.0806     0.0198     0.0002     0.7058           
   88    1.740   1963.29    11.5395    11.5130    11.5478     0.0813     0.0199     0.0002     0.7057           
   89    1.760   1964.26    11.6410    11.6141    11.6493     0.0835     0.0199     0.0002     0.7190           
   90    1.780   1965.34    11.7266    11.6995    11.7351     0.0852     0.0202     0.0002     0.7279           
   91    1.800   1966.43    11.8080    11.7805    11.8165     0.0867     0.0204     0.0002     0.7352           
   92    1.820   1967.54    11.8360    11.8081    11.8445     0.0892     0.0206     0.0002     0.7539           
   93    1.840   1968.65    11.8077    11.7797    11.8165     0.0905     0.0210     0.0002     0.7647           
   94    1.860   1969.73    11.7024    11.6741    11.7113     0.0910     0.0213     0.0002     0.7749           
   95    1.880   1970.65    11.5338    11.5052    11.5428     0.0898     0.0217     0.0002     0.7758           
   96    1.900   1971.78    11.2935    11.2647    11.3027     0.0868     0.0222     0.0003     0.7658           
   97    1.920   1972.79    11.0344    11.0054    11.0438     0.0840     0.0225     0.0003     0.7575           
   98    1.940   1973.76    10.8605    10.8312    10.8700     0.0816     0.0223     0.0003     0.7484           
   99    1.960   1974.83    10.7835    10.7537    10.7929     0.0806     0.0224     0.0003     0.7466           
  100    1.980   1976.00    10.8119    10.7817    10.8213     0.0792     0.0227     0.0002     0.7349           
  101    2.000   1977.08    10.8878    10.8574    10.8974     0.0796     0.0232     0.0003     0.7331           
  102    2.020   1978.15    10.9531    10.9226    10.9630     0.0794     0.0237     0.0003     0.7259           
  103    2.040   1979.15    10.9658    10.9350    10.9758     0.0807     0.0239     0.0003     0.7363           
  104    2.060   1980.07    10.9105    10.8794    10.9206     0.0808     0.0239     0.0003     0.7393           
  105    2.080   1981.10    10.8196    10.7881    10.8297     0.0805     0.0242     0.0003     0.7426           
  106    2.100   1982.22    10.7261    10.6943    10.7363     0.0789     0.0241     0.0003     0.7336           
  107    2.120   1983.36    10.6378    10.6055    10.6479     0.0796     0.0241     0.0003     0.7462           
  108    2.140   1984.33    10.6169    10.5844    10.6272     0.0792     0.0248     0.0003     0.7454           
  109    2.160   1985.38    10.6776    10.6449    10.6881     0.0783     0.0250     0.0003     0.7354           
  110    2.180   1986.47    10.7599    10.7270    10.7706     0.0777     0.0255     0.0003     0.7242           
  111    2.200   1987.43    10.8644    10.8311    10.8751     0.0781     0.0256     0.0003     0.7209           
  112    2.220   1988.43    10.9975    10.9638    11.0082     0.0788     0.0256     0.0003     0.7178           
  113    2.240   1989.49    11.1758    11.1418    11.1866     0.0791     0.0258     0.0003     0.7087           
  114    2.260   1990.63    11.4014    11.3672    11.4124     0.0792     0.0264     0.0003     0.6974           
  115    2.280   1991.79    11.6404    11.6059    11.6515     0.0789     0.0263     0.0003     0.6805           
  116    2.300   1992.76    11.8886    11.8536    11.8996     0.0792     0.0263     0.0003     0.6703           
  117    2.320   1993.88    12.1399    12.1045    12.1509     0.0795     0.0263     0.0002     0.6592           
  118    2.340   1995.03    12.3392    12.3036    12.3504     0.0803     0.0267     0.0003     0.6521           
  119    2.360   1996.03    12.4989    12.4630    12.5102     0.0809     0.0270     0.0003     0.6506           
  120    2.380   1997.06    12.6747    12.6384    12.6860     0.0830     0.0273     0.0003     0.6578           
  121    2.400   1998.10    12.8085    12.7721    12.8201     0.0845     0.0277     0.0003     0.6607           
  122    2.420   1999.13    12.8600    12.8233    12.8717     0.0862     0.0278     0.0003     0.6712           
  123    2.440   2000.17    12.9040    12.8668    12.9156     0.0888     0.0279     0.0003     0.6887           
  124    2.460   2001.30    12.9023    12.8650    12.9142     0.0905     0.0282     0.0003     0.7014           
  125    2.480   2002.42    12.9118    12.8743    12.9239     0.0916     0.0287     0.0003     0.7102           
  126    2.500   2003.43    12.9657    12.9279    12.9779     0.0922     0.0287     0.0003     0.7126           
  127    2.520   2004.51    13.0126    12.9745    13.0249     0.0919     0.0291     0.0003     0.7081           
  128    2.540   2005.56    13.0611    13.0224    13.0732     0.0917     0.0291     0.0003     0.7037           
  129    2.560   2006.49    13.0816    13.0427    13.0939     0.0917     0.0293     0.0003     0.7021           
  130    2.580   2007.60    13.1472    13.1080    13.1596     0.0947     0.0295     0.0003     0.7204           
  131    2.600   2008.63    13.2239    13.1844    13.2364     0.0960     0.0300     0.0003     0.7262           
  132    2.620   2037.44    13.1737    13.1340    13.1864     0.0976     0.0303     0.0003     0.7373           
  133    2.640   2078.06    13.0729    13.0329    13.0857     0.0993     0.0306     0.0003     0.7495           
  134    2.660   2118.69    12.9721    12.9319    12.9851     0.1004     0.0309     0.0003     0.7580           
  135    2.680   2131.69    12.8874    12.8469    12.9005     0.1010     0.0313     0.0003     0.7817           
  136    2.700   2132.67    12.7994    12.7586    12.8126     0.1005     0.0313     0.0003     0.7831           
  137    2.720   2133.69    12.6459    12.6049    12.6593     0.0991     0.0320     0.0004     0.7810           
  138    2.740   2134.71    12.4220    12.3808    12.4356     0.0974     0.0325     0.0004     0.7809           
  139    2.760   2135.77    12.2041    12.1627    12.2179     0.0958     0.0327     0.0004     0.7814           
  140    2.780   2137.00    12.0590    12.0170    12.0726     0.0947     0.0328     0.0004     0.7816           
  141    2.800   2137.94    12.0079    11.9657    12.0217     0.0939     0.0329     0.0004     0.7806           
  142    2.820   2139.01    11.9735    11.9311    11.9875     0.0934     0.0332     0.0004     0.7794           
  143    2.840   2140.04    11.9793    11.9364    11.9932     0.0931     0.0331     0.0004     0.7773           
  144    2.860   2141.14    11.9222    11.8789    11.9361     0.0934     0.0332     0.0004     0.7814           
  145    2.880   2142.15    11.8282    11.7844    11.8420     0.0941     0.0331     0.0004     0.7939           
  146    2.900   2143.19    11.7244    11.6805    11.7385     0.0940     0.0336     0.0004     0.8005           
  147    2.920   2144.15    11.6073    11.5632    11.6216     0.0925     0.0340     0.0004     0.7948           
  148    2.940   2145.23    11.4464    11.4020    11.4608     0.0902     0.0344     0.0004     0.7837           
  149    2.960   2146.26    11.2123    11.1677    11.2269     0.0881     0.0349     0.0005     0.7801           
  150    2.980   2147.43    10.9686    10.9236    10.9832     0.0861     0.0349     0.0005     0.7790           
  151    3.000   2148.49    10.8770    10.8317    10.8917     0.0847     0.0350     0.0005     0.7776           
  152    3.020   2149.56    10.9235    10.8777    10.9381     0.0842     0.0347     0.0004     0.7734           
  153    3.040   2150.48    11.0444    10.9982    11.0590     0.0841     0.0352     0.0004     0.7642           
  154    3.060   2151.51    11.2192    11.1727    11.2339     0.0847     0.0350     0.0004     0.7578           
  155    3.080   2152.54    11.3324    11.2854    11.3470     0.0862     0.0355     0.0004     0.7616           
  156    3.100   2153.63    11.4566    11.4096    11.4716     0.0878     0.0356     0.0004     0.7687           
  157    3.120   2154.79    11.5698    11.5225    11.5849     0.0896     0.0360     0.0004     0.7759           
  158    3.140   2155.76    11.6226    11.5750    11.6378     0.0907     0.0362     0.0004     0.7811           
  159    3.160   2156.88    11.5713    11.5233    11.5865     0.0917     0.0361     0.0004     0.7906           
  160    3.180   2157.94    11.4623    11.4139    11.4775     0.0921     0.0364     0.0004     0.8014           
  161    3.200   2158.94    11.3807    11.3320    11.3960     0.0923     0.0365     0.0004     0.8097           
  162    3.220   2159.93    11.3022    11.2531    11.3175     0.0916     0.0362     0.0004     0.8096           
  163    3.240   2161.07    11.2157    11.1663    11.2311     0.0909     0.0369     0.0004     0.8095           
  164    3.260   2162.11    11.0917    11.0421    11.1073     0.0895     0.0375     0.0004     0.8040           
  165    3.280   2163.15    10.9088    10.8591    10.9247     0.0878     0.0378     0.0004     0.8012           
  166    3.300   2164.21    10.7438    10.6937    10.7597     0.0856     0.0380     0.0005     0.7930           
  167    3.320   2165.32    10.6453    10.5950    10.6614     0.0823     0.0385     0.0005     0.7715           
  168    3.340   2166.38    10.6137    10.5629    10.6297     0.0790     0.0381     0.0005     0.7435           
  169    3.360   2167.38    10.6575    10.6064    10.6736     0.0762     0.0382     0.0005     0.7163           
  170    3.380   2168.54    10.8119    10.7604    10.8280     0.0751     0.0383     0.0004     0.6976           
  171    3.400   2169.57    11.0874    11.0357    11.1037     0.0751     0.0386     0.0004     0.6807           
  172    3.420   2170.50    11.4453    11.3934    11.4618     0.0771     0.0390     0.0004     0.6790           
  173    3.440   2171.57    11.8686    11.8162    11.8850     0.0797     0.0392     0.0004     0.6789           
  174    3.460   2172.67    12.1942    12.1415    12.2107     0.0832     0.0394     0.0004     0.6875           
  175    3.480   2173.75    12.4006    12.3475    12.4171     0.0873     0.0395     0.0004     0.7075           
  176    3.500   2174.88    12.4815    12.4281    12.4981     0.0921     0.0399     0.0004     0.7400           
  177    3.520   2176.03    12.5161    12.4625    12.5329     0.0954     0.0398     0.0004     0.7627           
  178    3.540   2177.00    12.4811    12.4270    12.4978     0.0973     0.0399     0.0004     0.7793           
  179    3.560   2177.88    12.3346    12.2802    12.3514     0.0977     0.0403     0.0004     0.7892           
  180    3.580   2178.88    12.1310    12.0764    12.1480     0.0970     0.0406     0.0004     0.7962           
  181    3.600   2180.04    11.9134    11.8586    11.9306     0.0954     0.0407     0.0004     0.7975           
  182    3.620   2181.11    11.7251    11.6698    11.7422     0.0942     0.0404     0.0004     0.7996           
  183    3.640   2182.19    11.5909    11.5353    11.6081     0.0937     0.0412     0.0004     0.8061           
  184    3.660   2183.29    11.5630    11.5072    11.5804     0.0933     0.0416     0.0004     0.8069           
  185    3.680   2184.26    11.5886    11.5327    11.6063     0.0939     0.0420     0.0005     0.8108           
  186    3.700   2185.30    11.5835    11.5271    11.6011     0.0947     0.0420     0.0004     0.8170           
  187    3.720   2186.43    11.5002    11.4434    11.5178     0.0953     0.0419     0.0004     0.8265           
  188    3.740   2187.50    11.3090    11.2520    11.3268     0.0951     0.0422     0.0004     0.8378           
  189    3.760   2188.38    11.0992    11.0418    11.1170     0.0943     0.0422     0.0004     0.8454           
  190    3.780   2189.49    10.8206    10.7627    10.8383     0.0933     0.0425     0.0004     0.8553           
  191    3.800   2190.60    10.4605    10.4025    10.4785     0.0922     0.0428     0.0005     0.8713           
  192    3.820   2191.71    10.0160     9.9577    10.0341     0.0910     0.0434     0.0005     0.8934           
  193    3.840   2192.76     9.5725     9.5139     9.5907     0.0891     0.0433     0.0005     0.9147           
  194    3.860   2193.77     9.1232     9.0643     9.1415     0.0864     0.0439     0.0006     0.9317           
  195    3.880   2194.82     8.6694     8.6104     8.6880     0.0824     0.0442     0.0006     0.9382           
  196    3.900   2195.82     8.3111     8.2514     8.3294     0.0784     0.0435     0.0005     0.9342           
  197    3.920   2196.88     7.9748     7.9149     7.9933     0.0740     0.0440     0.0006     0.9189           
  198    3.940   2198.04     7.6345     7.5742     7.6530     0.0714     0.0443     0.0006     0.9213           
  199    3.960   2199.11     7.3195     7.2590     7.3382     0.0690     0.0446     0.0007     0.9281           
  200    3.980   2200.15     7.0652     7.0045     7.0841     0.0667     0.0449     0.0007     0.9294           
  201    4.000   2201.29     6.8028     6.7418     6.8218     0.0639     0.0453     0.0008     0.9306           
  202    4.020   2202.21     6.4996     6.4383     6.5187     0.0596     0.0456     0.0008     0.8956           
  203    4.040   2203.19     6.0676     6.0058     6.0866     0.0544     0.0449     0.0008     0.8784           
  204    4.060   2204.21     5.5525     5.4895     5.5707     0.0501     0.0430     0.0005     0.8799           
  205    4.080   2205.21     5.1131     5.0497     5.1313     0.0446     0.0431     0.0005     0.8533           
  206    4.100   2206.36     4.5978     4.5339     4.6159     0.0393     0.0435     0.0005     0.8276           
  207    4.120   2207.50     4.1105     4.0467     4.1291     0.0344     0.0438     0.0008     0.8050           
  208    4.140   2208.44     3.6131     3.5490     3.6318     0.0285     0.0449     0.0009     0.7483           
  209    4.160   2209.52     3.3300     3.2656     3.3488     0.0231     0.0453     0.0010     0.6754           
  210    4.180   2210.64     3.1417     3.0773     3.1609     0.0191     0.0459     0.0012     0.5942           
  211    4.200   2211.63     3.1084     3.0436     3.1276     0.0179     0.0456     0.0012     0.5747           
  212    4.220   2212.65     3.0883     3.0232     3.1076     0.0181     0.0457     0.0012     0.5868           
  213    4.240   2213.63     3.1802     3.1135     3.1983     0.0251     0.0456     0.0002     0.7741           
  214    4.260   2214.73     3.3569     3.2912     3.3764     0.0253     0.0469     0.0011     0.7652           
  215    4.280   2215.77     3.8517     3.7847     3.8703     0.0285     0.0430     0.0004     0.7870           
  216    4.300   2216.88     4.3776     4.3104     4.3964     0.0300     0.0450     0.0004     0.6824           
  217    4.320   2217.93     4.4593     4.3918     4.4782     0.0324     0.0352     0.0004     0.7398           
  218    4.340   2219.01     4.3514     4.2859     4.3727     0.0348     0.0464     0.0017     0.7972           
  219    4.360   2219.98     4.4674     4.3992     4.4864     0.0351     0.0451     0.0003     0.7896           
  220    4.380   2221.02     4.4832     4.4128     4.5005     0.0324     0.0457    -0.0006     0.7254           
  221    4.400   2222.04     4.6271     4.5607     4.6487     0.0336     0.0517     0.0016     0.7288           
  222    4.420   2247.13     4.7780     4.7114     4.7998     0.0347     0.0520     0.0016     0.7371           
  223    4.440   2282.50     4.8712     4.8043     4.8932     0.0361     0.0523     0.0016     0.7661           
  224    4.460   2317.88     4.9645     4.8972     4.9865     0.0396     0.0527     0.0016     0.8233           
  225    4.480   2319.00     5.3273     5.2593     5.3490     0.0414     0.0514     0.0013     0.7970           
  226    4.500   2320.15     5.6783     5.6097     5.6998     0.0440     0.0508     0.0011     0.7960           
  227    4.520   2321.15     6.0371     5.9680     6.0585     0.0468     0.0511     0.0010     0.7946           
  228    4.540   2322.13     6.3283     6.2586     6.3495     0.0494     0.0506     0.0008     0.7894           
  229    4.560   2323.15     6.5851     6.5151     6.6064     0.0513     0.0507     0.0008     0.7848           
  230    4.580   2324.18     6.8162     6.7458     6.8376     0.0543     0.0510     0.0008     0.8040           
  231    4.600   2325.26     7.0698     6.9992     7.0913     0.0571     0.0512     0.0008     0.8166           
  232    4.620   2326.32     7.3609     7.2902     7.3827     0.0604     0.0519     0.0008     0.8323           
  233    4.640   2327.43     7.7178     7.6466     7.7396     0.0628     0.0520     0.0007     0.8281           
  234    4.660   2328.49     8.0588     7.9874     8.0807     0.0646     0.0524     0.0007     0.8162           
  235    4.680   2329.56     8.3443     8.2725     8.3663     0.0653     0.0522     0.0007     0.7929           
  236    4.700   2330.56     8.5835     8.5113     8.6055     0.0656     0.0523     0.0006     0.7700           
  237    4.720   2331.54     8.7851     8.7125     8.8071     0.0654     0.0525     0.0006     0.7487           
  238    4.740   2332.63     9.1566     9.0835     9.1786     0.0655     0.0526     0.0005     0.7258           
  239    4.760   2333.65     9.6560     9.5827     9.6781     0.0670     0.0527     0.0005     0.7053           
  240    4.780   2334.79    10.2434    10.1697    10.2655     0.0692     0.0527     0.0005     0.6892           
  241    4.800   2335.76    10.8241    10.7502    10.8464     0.0726     0.0531     0.0005     0.6814           
  242    4.820   2336.88    11.4922    11.4179    11.5146     0.0760     0.0536     0.0004     0.6745           
  243    4.840   2337.94    12.1348    12.0603    12.1573     0.0793     0.0537     0.0004     0.6664           
  244    4.860   2338.93    12.7830    12.7080    12.8055     0.0834     0.0540     0.0004     0.6619           
  245    4.880   2339.98    13.4497    13.3744    13.4723     0.0873     0.0538     0.0004     0.6556           
  246    4.900   2341.07    14.1497    14.0740    14.1723     0.0901     0.0537     0.0003     0.6442           
  247    4.920   2342.15    14.8074    14.7314    14.8301     0.0921     0.0540     0.0003     0.6271           
  248    4.940   2343.13    15.4395    15.3629    15.4621     0.0943     0.0539     0.0003     0.6171           
  249    4.960   2344.23    16.0965    16.0196    16.1191     0.0983     0.0541     0.0003     0.6175           
  250    4.980   2345.38    16.8317    16.7547    16.8547     0.1025     0.0547     0.0003     0.6202           
  251    5.000   2346.54    17.6172    17.5400    17.6403     0.1069     0.0554     0.0003     0.6177           
  252    5.020   2347.49    18.4205    18.3428    18.4436     0.1116     0.0554     0.0003     0.6150           
  253    5.040   2348.48    18.9579    18.8799    18.9811     0.1162     0.0555     0.0003     0.6165           
  254    5.060   2349.52    19.2712    19.1931    19.2947     0.1201     0.0560     0.0003     0.6257           
  255    5.080   2350.61    19.5524    19.4738    19.5758     0.1230     0.0555     0.0003     0.6314           
  256    5.100   2351.60    19.9203    19.8416    19.9440     0.1248     0.0566     0.0003     0.6296           
  257    5.120   2352.65    20.2920    20.2128    20.3156     0.1255     0.0563     0.0002     0.6217           
  258    5.140   2353.77    20.6745    20.5948    20.6980     0.1268     0.0557     0.0002     0.6166           
  259    5.160   2354.84    21.0235    20.9435    21.0472     0.1274     0.0561     0.0002     0.6087           
  260    5.180   2355.93    21.5038    21.4236    21.5276     0.1275     0.0568     0.0002     0.5965           
  261    5.200   2356.94    22.0643    21.9838    22.0882     0.1293     0.0572     0.0002     0.5902           
  262    5.220   2357.93    22.5956    22.5151    22.6199     0.1315     0.0573     0.0003     0.5858           
  263    5.240   2359.04    23.1865    23.1053    23.2105     0.1337     0.0571     0.0002     0.5813           
  264    5.260   2360.15    23.7185    23.6372    23.7429     0.1359     0.0577     0.0002     0.5769           
  265    5.280   2361.21    24.1427    24.0610    24.1671     0.1409     0.0583     0.0002     0.5859           
  266    5.300   2385.51    24.2883    24.2063    24.3128     0.1449     0.0586     0.0002     0.5970           
  267    5.320   2444.62    24.3359    24.2537    24.3606     0.1480     0.0591     0.0002     0.6099           
  268    5.340   2503.72    24.3834    24.3011    24.4084     0.1506     0.0597     0.0003     0.6205           
  269    5.360   2562.82    24.4310    24.3485    24.4562     0.1526     0.0603     0.0003     0.6287           
  270    5.380   2592.88    24.6202    24.5373    24.6454     0.1528     0.0600     0.0003     0.6214           
  271    5.400   2594.01    24.9187    24.8353    24.9439     0.1533     0.0596     0.0002     0.6163           
  272    5.420   2595.07    25.1311    25.0476    25.1566     0.1544     0.0616     0.0003     0.6157           
  273    5.440   2596.21    25.4355    25.3513    25.4607     0.1560     0.0599     0.0002     0.6155           
  274    5.460   2597.21    25.7474    25.6629    25.7727     0.1575     0.0611     0.0002     0.6140           
  275    5.480   2598.27    26.1371    26.0530    26.1632     0.1587     0.0621     0.0003     0.6103           
  276    5.500   2599.43    26.5500    26.4655    26.5761     0.1607     0.0620     0.0003     0.6090           
  277    5.520   2600.48    26.9051    26.8204    26.9314     0.1629     0.0620     0.0003     0.6092           
  278    5.540   2601.48    27.2611    27.1763    27.2877     0.1649     0.0645     0.0003     0.6070           
  279    5.560   2602.44    27.5772    27.4915    27.6033     0.1661     0.0624     0.0002     0.6036           
  280    5.580   2603.52    27.9572    27.8713    27.9835     0.1678     0.0616     0.0002     0.6020           
  281    5.600   2604.57    28.3102    28.2237    28.3363     0.1691     0.0621     0.0002     0.5993           
  282    5.620   2605.65    28.7867    28.7004    28.8135     0.1708     0.0631     0.0003     0.5961           
  283    5.640   2606.80    29.4042    29.3175    29.4310     0.1735     0.0636     0.0003     0.5940           
  284    5.660   2607.82    30.0758    29.9892    30.1031     0.1772     0.0647     0.0003     0.5935           
  285    5.680   2608.88    30.8276    30.7398    30.8541     0.1825     0.0653     0.0002     0.5955           
  286    5.700   2609.97    31.8805    31.7932    31.9079     0.1897     0.0655     0.0003     0.5994           
  287    5.720   2610.99    33.0402    32.9529    33.0680     0.1968     0.0664     0.0003     0.5995           
  288    5.740   2612.02    34.0857    33.9981    34.1136     0.2051     0.0671     0.0003     0.6040           
  289    5.760   2613.13    34.8069    34.7184    34.8344     0.2129     0.0664     0.0002     0.6140           
  290    5.780   2614.25    35.3502    35.2626    35.3789     0.2233     0.0682     0.0003     0.6347           
  291    5.800   2615.31    35.8360    35.7467    35.8634     0.2359     0.0614     0.0002     0.6614           
  292    5.820   2616.38    36.4380    36.3465    36.4637     0.2486     0.0611     0.0001     0.6857           
  293    5.840   2617.43    37.0047    36.9137    37.0313     0.2593     0.0587     0.0001     0.7031           
  294    5.860   2618.47    37.4234    37.3291    37.4471     0.2701     0.0550    -0.0001     0.7240           
  295    5.880   2619.52    37.7604    37.6686    37.7870     0.2819     0.0632     0.0001     0.7478           
  296    5.900   2620.60    38.0297    37.9392    38.0580     0.2918     0.0741     0.0002     0.7676           
  297    5.920   2621.65    38.0960    38.0002    38.1194     0.2981     0.0543    -0.0001     0.7823           
  298    5.940   2622.71    37.9394    37.8419    37.9616     0.3011     0.0509    -0.0002     0.7925           
  299    5.960   2623.74    37.7625    37.6636    37.7837     0.3009     0.0535    -0.0002     0.7957           
  300    5.980   2624.88    37.7230    37.6222    37.7427     0.3017     0.0530    -0.0003     0.8000           
  301    6.000   2626.04    37.8787    37.7799    37.9007     0.3028     0.0529    -0.0002     0.8007           
  302    6.020   2627.04    37.9666    37.8664    37.9877     0.3030     0.0516    -0.0003     0.7985           
  303    6.040   2628.07    38.0098    37.9096    38.0313     0.3050     0.0537    -0.0002     0.8026           
  304    6.060   2629.16    38.0401    37.9404    38.0624     0.3065     0.0593    -0.0002     0.8059           
  305    6.080   2630.10    37.9725    37.8715    37.9940     0.3087     0.0497    -0.0003     0.8129           
  306    6.100   2631.18    37.9977    37.8956    38.0185     0.3117     0.0467    -0.0003     0.8208           
  307    6.120   2632.27    38.0776    37.9761    38.0994     0.3108     0.0559    -0.0002     0.8163           
  308    6.140   2633.43    38.0875    37.9859    38.1096     0.3102     0.0586    -0.0002     0.8148           
  309    6.160   2634.52    38.1692    38.0650    38.1891     0.3118     0.0506    -0.0004     0.8179           
  310    6.180   2635.54    38.1504    38.0451    38.1696     0.3134     0.0473    -0.0004     0.8214           
  311    6.200   2636.57    38.1397    38.0372    38.1621     0.3126     0.0509    -0.0002     0.8196           
  312    6.220   2637.63    38.0815    37.9753    38.1007     0.3143     0.0445    -0.0004     0.8251           
  313    6.240   2638.71    37.9923    37.8901    38.0159     0.3149     0.0521    -0.0002     0.8286           
  314    6.260   2639.72    37.8796    37.7749    37.9011     0.3155     0.0510    -0.0003     0.8326           
  315    6.280   2640.82    37.7625    37.6547    37.7813     0.3125     0.0460    -0.0005     0.8283           
  316    6.300   2641.93    37.5389    37.4319    37.5589     0.3078     0.0496    -0.0004     0.8209           
  317    6.320   2643.07    37.1432    37.0354    37.1628     0.3032     0.0464    -0.0004     0.8136           
  318    6.340   2644.13    36.8741    36.7674    36.8953     0.2985     0.0499    -0.0004     0.8062           
  319    6.360   2645.18    36.7267    36.6197    36.7479     0.2963     0.0504    -0.0004     0.8053           
  320    6.380   2652.68    36.6123    36.5036    36.6323     0.3001     0.0495    -0.0004     0.8185           
  321    6.400   2679.93    36.4186    36.3119    36.4409     0.3012     0.0553    -0.0003     0.8217           
  322    6.420   2707.17    36.2248    36.1201    36.2496     0.3012     0.0610    -0.0001     0.8216           
  323    6.440   2734.41    36.0310    35.9283    36.0582     0.3071     0.0668     0.0000     0.8377           
  324    6.460   2761.65    35.8372    35.7366    35.8669     0.3076     0.0649     0.0002     0.8430           
  325    6.480   2765.38    35.7305    35.6248    35.7555     0.3074     0.0552    -0.0001     0.8588           
  326    6.500   2766.52    35.6974    35.5913    35.7224     0.3076     0.0585    -0.0002     0.8619           
  327    6.520   2767.54    35.6821    35.5761    35.7076     0.3055     0.0647    -0.0001     0.8555           
  328    6.540   2768.52    35.6129    35.5067    35.6386     0.3028     0.0586    -0.0001     0.8501           
  329    6.560   2769.57    35.5657    35.4581    35.5904     0.3022     0.0628    -0.0002     0.8501           
  330    6.580   2770.65    35.4951    35.3876    35.5203     0.3004     0.0609    -0.0002     0.8460           
  331    6.600   2771.71    35.4320    35.3240    35.4571     0.2995     0.0563    -0.0002     0.8450           
  332    6.620   2772.82    35.5110    35.4040    35.5376     0.2999     0.0613    -0.0001     0.8450           
  333    6.640   2773.93    35.6076    35.4985    35.6325     0.2995     0.0596    -0.0002     0.8418           
  334    6.660   2774.99    35.6762    35.5657    35.7001     0.3007     0.0564    -0.0003     0.8430           
  335    6.680   2776.02    35.6973    35.5881    35.7229     0.3026     0.0575    -0.0002     0.8479           
  336    6.700   2777.06    35.6951    35.5868    35.7220     0.3050     0.0627    -0.0001     0.8539           
  337    6.720   2778.10    35.5399    35.4297    35.5653     0.3069     0.0622    -0.0002     0.8631           
  338    6.740   2779.18    35.1862    35.0750    35.2111     0.3069     0.0584    -0.0002     0.8699           
  339    6.760   2780.26    34.7457    34.6334    34.7699     0.3052     0.0612    -0.0003     0.8761           
  340    6.780   2781.28    34.4423    34.3321    34.4689     0.3032     0.0605    -0.0001     0.8790           
  341    6.800   2782.38    34.2073    34.0937    34.2309     0.2995     0.0570    -0.0003     0.8746           
  342    6.820   2783.52    33.9788    33.8642    34.0019     0.2957     0.0597    -0.0004     0.8684           
  343    6.840   2784.57    33.7908    33.6790    33.8171     0.2929     0.0622    -0.0002     0.8659           
  344    6.860   2785.63    33.6985    33.5848    33.7233     0.2910     0.0576    -0.0003     0.8630           
  345    6.880   2786.65    33.7685    33.6551    33.7939     0.2890     0.0610    -0.0002     0.8565           
  346    6.900   2787.69    33.7941    33.6810    33.8203     0.2865     0.0626    -0.0002     0.8479           
  347    6.920   2788.76    33.7249    33.6119    33.7516     0.2854     0.0612    -0.0002     0.8458           
  348    6.940   2789.82    33.6042    33.4904    33.6306     0.2858     0.0640    -0.0002     0.8499           
  349    6.960   2790.93    33.6164    33.5024    33.6430     0.2867     0.0664    -0.0002     0.8527           
  350    6.980   2792.15    33.5156    33.4014    33.5424     0.2856     0.0645    -0.0002     0.8513           
  351    7.000   2793.38    33.4477    33.3333    33.4747     0.2845     0.0638    -0.0002     0.8504           
  352    7.020   2794.26    33.4081    33.2935    33.4353     0.2849     0.0673    -0.0002     0.8526           
  353    7.040   2795.24    33.3698    33.2545    33.3967     0.2852     0.0620    -0.0002     0.8546           
  354    7.060   2796.24    33.3817    33.2651    33.4077     0.2860     0.0641    -0.0003     0.8571           
  355    7.080   2797.38    33.3898    33.2741    33.4170     0.2863     0.0633    -0.0002     0.8575           
  356    7.100   2798.44    33.3337    33.2190    33.3624     0.2862     0.0640    -0.0001     0.8580           
  357    7.120   2799.49    33.1873    33.0714    33.2152     0.2858     0.0659    -0.0001     0.8601           
  358    7.140   2800.60    33.0686    32.9517    33.0959     0.2855     0.0651    -0.0002     0.8616           
  359    7.160   2801.63    32.8973    32.7806    32.9252     0.2833     0.0683    -0.0002     0.8597           
  360    7.180   2802.65    32.7673    32.6498    32.7948     0.2806     0.0622    -0.0002     0.8555           
  361    7.200   2803.72    32.6652    32.5460    32.6915     0.2797     0.0621    -0.0003     0.8554           
  362    7.220   2804.72    32.6291    32.5105    32.6564     0.2783     0.0643    -0.0002     0.8526           
  363    7.240   2805.76    32.6604    32.5404    32.6867     0.2755     0.0664    -0.0003     0.8435           
  364    7.260   2806.88    32.8422    32.7233    32.8699     0.2750     0.0663    -0.0002     0.8383           
  365    7.280   2807.93    32.9885    32.8694    33.0165     0.2745     0.0695    -0.0002     0.8331           
  366    7.300   2809.02    33.0763    32.9578    33.1053     0.2756     0.0692    -0.0001     0.8339           
  367    7.320   2810.13    33.2294    33.1100    33.2579     0.2774     0.0670    -0.0002     0.8356           
  368    7.340   2811.21    33.4206    33.3009    33.4492     0.2800     0.0684    -0.0002     0.8387           
  369    7.360   2812.26    33.6261    33.5065    33.6552     0.2824     0.0718    -0.0001     0.8416           
  370    7.380   2813.27    33.7641    33.6446    33.7937     0.2844     0.0692    -0.0001     0.8426           
  371    7.400   2814.32    33.7987    33.6772    33.8268     0.2848     0.0685    -0.0002     0.8424           
  372    7.420   2815.33    33.8178    33.6966    33.8466     0.2861     0.0674    -0.0002     0.8459           
  373    7.440   2816.43    33.8495    33.7288    33.8792     0.2873     0.0693    -0.0001     0.8492           
  374    7.460   2817.52    33.9318    33.8094    33.9601     0.2877     0.0686    -0.0002     0.8488           
  375    7.480   2818.69    34.0341    33.9107    34.0619     0.2877     0.0652    -0.0003     0.8466           
  376    7.500   2819.76    34.1638    34.0406    34.1922     0.2865     0.0684    -0.0002     0.8391           
  377    7.520   2820.82    34.2437    34.1181    34.2701     0.2875     0.0670    -0.0004     0.8402           
  378    7.540   2821.82    34.3652    34.2418    34.3942     0.2907     0.0676    -0.0002     0.8468           
  379    7.560   2822.82    34.4254    34.3005    34.4534     0.2917     0.0669    -0.0003     0.8478           
  380    7.580   2823.83    34.4386    34.3140    34.4672     0.2912     0.0693    -0.0002     0.8455           
  381    7.600   2824.93    34.2839    34.1582    34.3118     0.2892     0.0692    -0.0003     0.8422           
  382    7.620   2825.99    33.8831    33.7563    33.9104     0.2878     0.0612    -0.0003     0.8466           
  383    7.640   2827.13    33.5258    33.3977    33.5522     0.2844     0.0647    -0.0004     0.8472           
  384    7.660   2828.21    33.5509    33.4218    33.5767     0.2748     0.0595    -0.0005     0.8200           
  385    7.680   2829.24    33.6245    33.4945    33.6497     0.2626     0.0621    -0.0005     0.7814           
  386    7.700   2830.27    33.6911    33.5629    33.7186     0.2550     0.0669    -0.0003     0.7571           
  387    7.720   2831.32    33.7834    33.6569    33.8130     0.2511     0.0695    -0.0002     0.7439           
  388    7.740   2832.38    33.9751    33.8472    34.0037     0.2469     0.0698    -0.0003     0.7274           
  389    7.760   2833.43    34.2302    34.1048    34.2617     0.2417     0.0774    -0.0001     0.7067           
  390    7.780   2834.56    34.4538    34.3305    34.4878     0.2361     0.0819     0.0001     0.6859           
  391    7.800   2835.63    34.6569    34.5346    34.6924     0.2338     0.0845     0.0002     0.6756           
  392    7.820   2836.75    34.9504    34.8270    34.9852     0.2332     0.0829     0.0001     0.6681           
  393    7.840   2837.88    35.1343    35.0109    35.1695     0.2325     0.0841     0.0002     0.6629           
  394    7.860   2838.93    35.3273    35.2043    35.3633     0.2307     0.0870     0.0002     0.6540           
  395    7.880   2839.88    35.5296    35.4065    35.5659     0.2284     0.0869     0.0002     0.6431           
  396    7.900   2840.97    35.7748    35.6517    35.8115     0.2282     0.0883     0.0002     0.6383           
  397    7.920   2842.04    36.0516    35.9274    36.0876     0.2301     0.0858     0.0002     0.6393           
  398    7.940   2843.13    36.3168    36.1927    36.3533     0.2324     0.0874     0.0002     0.6407           
  399    7.960   2844.21    36.3206    36.1961    36.3571     0.2350     0.0863     0.0002     0.6464           
  400    7.980   2845.27    36.0940    35.9696    36.1310     0.2385     0.0887     0.0002     0.6594           
  401    8.000   2846.38    35.7312    35.6059    35.7677     0.2411     0.0899     0.0002     0.6732           
  402    8.020   2847.51    35.5268    35.4018    35.5641     0.2434     0.0881     0.0002     0.6843           
  403    8.040   2848.52    35.3785    35.2533    35.4160     0.2439     0.0902     0.0003     0.6887           
  404    8.060   2849.56    35.1769    35.0511    35.2142     0.2430     0.0904     0.0002     0.6900           
  405    8.080   2850.60    34.9652    34.8394    35.0029     0.2421     0.0905     0.0003     0.6912           
  406    8.100   2851.69    34.8085    34.6825    34.8464     0.2394     0.0904     0.0003     0.6866           
  407    8.120   2852.82    34.5332    34.4087    34.5730     0.2357     0.0921     0.0004     0.6805           
  408    8.140   2853.88    34.3654    34.2389    34.4036     0.2326     0.0925     0.0003     0.6758           
  409    8.160   2854.98    34.3717    34.2454    34.4106     0.2309     0.0915     0.0003     0.6717           
  410    8.180   2855.93    34.3251    34.1983    34.3638     0.2296     0.0926     0.0003     0.6684           
  411    8.200   2856.97    34.2489    34.1218    34.2878     0.2297     0.0938     0.0003     0.6705           
  412    8.220   2857.99    34.2517    34.1247    34.2911     0.2308     0.0916     0.0003     0.6735           
  413    8.240   2859.06    34.0477    33.9205    34.0873     0.2301     0.0956     0.0003     0.6752           
  414    8.260   2860.15    33.7989    33.6713    33.8385     0.2283     0.0939     0.0003     0.6746           
  415    8.280   2861.26    33.4770    33.3486    33.5162     0.2248     0.0939     0.0003     0.6696           
  416    8.300   2862.38    32.9217    32.7930    32.9610     0.2196     0.0963     0.0003     0.6641           
  417    8.320   2863.49    32.5085    32.3797    32.5481     0.2133     0.0941     0.0003     0.6540           
  418    8.340   2864.49    32.3853    32.2560    32.4248     0.2080     0.0951     0.0003     0.6420           
  419    8.360   2865.57    32.5743    32.4446    32.6138     0.1998     0.0951     0.0003     0.6145           
  420    8.380   2866.63    33.0002    32.8708    33.0404     0.1987     0.0952     0.0004     0.6051           
  421    8.400   2867.68    33.4506    33.3206    33.4907     0.1989     0.0954     0.0003     0.5960           
  422    8.420   2868.71    33.8552    33.7256    33.8961     0.2001     0.0978     0.0004     0.5931           
  423    8.440   2869.76    34.3944    34.2639    34.4348     0.2004     0.0979     0.0003     0.5847           
  424    8.460   2870.82    34.9738    34.8438    35.0151     0.2016     0.0986     0.0004     0.5793           
  425    8.480   2871.97    34.9268    34.8029    34.9746     0.2032     0.0964     0.0008     0.5784           
  426    8.500   2873.07    34.9450    34.8139    34.9860     0.2054     0.0990     0.0004     0.5887           
  427    8.520   2874.13    35.1179    34.9870    35.1595     0.2060     0.0995     0.0004     0.5873           
  428    8.540   2875.07    35.2602    35.1292    35.3022     0.2063     0.0977     0.0004     0.5859           
  429    8.560   2876.13    35.4185    35.2850    35.4583     0.2095     0.0956     0.0003     0.5916           
  430    8.580   2877.21    35.3786    35.2465    35.4202     0.2094     0.1023     0.0004     0.5913           
  431    8.600   2878.24    35.0610    34.9333    35.1074     0.2111     0.1064     0.0007     0.6010           
  432    8.620   2879.32    34.6432    34.5104    34.6850     0.2133     0.0990     0.0004     0.6152           
  433    8.640   2880.47    34.6426    34.5096    34.6846     0.2129     0.0981     0.0004     0.6144           
  434    8.660   2881.54    34.4273    34.2943    34.4697     0.2076     0.1017     0.0004     0.6016           
  435    8.680   2882.60    34.3169    34.1838    34.3596     0.2008     0.1007     0.0004     0.5851           
  436    8.700   2883.57    34.2348    34.1003    34.2765     0.1976     0.1007     0.0004     0.5769           
  437    8.720   2884.63    34.3606    34.2259    34.4026     0.1929     0.0994     0.0004     0.5619           
  438    8.740   2885.71    34.5752    34.4393    34.6163     0.1912     0.0986     0.0003     0.5532           
  439    8.760   2886.76    34.6761    34.5401    34.7176     0.1915     0.0991     0.0003     0.5523           
  440    8.780   2887.88    34.6511    34.5158    34.6937     0.1946     0.1011     0.0004     0.5613           
  441    8.800   2888.93    34.6774    34.5416    34.7198     0.1986     0.1004     0.0004     0.5724           
  442    8.820   2890.06    34.4371    34.3005    34.4791     0.2010     0.1007     0.0003     0.5821           
  443    8.840   2891.10    34.1055    33.9692    34.1483     0.2014     0.1020     0.0004     0.5886           
  444    8.860   2892.18    33.6917    33.5554    33.7349     0.1972     0.1020     0.0004     0.5830           
  445    8.880   2893.18    33.1768    33.0391    33.2190     0.1929     0.1002     0.0004     0.5793           
  446    8.900   2894.26    32.6239    32.4850    32.6653     0.1908     0.0982     0.0003     0.5834           
  447    8.920   2895.26    32.2841    32.1447    32.3254     0.1904     0.0980     0.0003     0.5889           
  448    8.940   2896.38    32.0620    31.9222    32.1033     0.1900     0.0980     0.0003     0.5917           
  449    8.960   2897.38    31.7750    31.6351    31.8166     0.1900     0.0991     0.0003     0.5964           
  450    8.980   2898.54    30.8636    30.7243    30.9062     0.1917     0.1015     0.0004     0.6146           
  451    9.000   2899.65    29.6222    29.4826    29.6650     0.1920     0.1019     0.0004     0.6355           
  452    9.020   2900.79    28.1964    28.0559    28.2387     0.1896     0.0999     0.0004     0.6563           
  453    9.040   2901.67    26.9794    26.8388    27.0220     0.1860     0.1012     0.0004     0.6778           
  454    9.060   2902.71    25.4453    25.3043    25.4879     0.1797     0.1020     0.0004     0.6929           
  455    9.080   2903.73    23.9723    23.8304    24.0144     0.1761     0.0992     0.0004     0.7170           
  456    9.100   2904.78    21.8731    21.7296    21.9140     0.1765     0.0966     0.0003     0.7699           
  457    9.120   2905.77    19.2044    19.0594    19.2442     0.1875     0.0944     0.0002     0.9208           
  458    9.140   2906.82    15.6579    15.5123    15.6975     0.2047     0.0948     0.0002     1.1859           
  459    9.160   2907.93    12.2796    12.1345    12.3201     0.2328     0.0985     0.0004     1.7149           
  460    9.180   2908.88     9.6968     9.5530     9.7390     0.2652     0.1032     0.0009     2.5367           
  461    9.200   2909.97     7.6070     7.4661     7.6525     0.2796     0.1107     0.0022     3.4436           
  462    9.220   2910.93     6.4441     6.3048     6.4917     0.2700     0.1139     0.0033     4.0536           
  463    9.240   2911.97     5.7222     5.5821     5.7694     0.2510     0.1115     0.0035     4.2991           
  464    9.260   2913.04     5.1455     5.0042     5.1918     0.2212     0.1115     0.0036     4.2270           
  465    9.280   2914.15     4.4903     4.3485     4.5364     0.1934     0.1107     0.0039     4.0916           
  466    9.300   2915.21     3.9006     3.7659     3.9542     0.1597     0.1675     0.0093     3.9763           
  467    9.320   2916.32     3.7744     3.7138     3.9025     0.1218     0.3951     0.0570     3.2255           
  468    9.340   2917.38     3.6908     3.7472     3.9363     0.0828     0.6915     0.1311     2.2178           
  469    9.360   2918.43     3.4091     3.5802     3.7697     0.0715     0.9654     0.2137     2.0408           
  470    9.380   2919.38     3.2420     3.5001     3.6900     0.0750     1.1092     0.2780     2.2940           
  471    9.400   2920.47     3.1476     3.4354     3.6257     0.0806     1.1426     0.3040     2.5553           
  472    9.420   2921.52     3.1745     3.4491     3.6398     0.0809     1.1031     0.2939     2.5582           
  473    9.440   2922.57     3.1803     3.4391     3.6301     0.0853     1.0439     0.2840     2.6861           
  474    9.460   2923.63     3.2263     3.4588     3.6502     0.0906     1.0070     0.2645     2.8136           
  475    9.480   2924.76     3.1865     3.4073     3.5990     0.0963     0.9706     0.2604     3.0044           
  476    9.500   2925.88     3.1042     3.3306     3.5227     0.1012     0.9738     0.2706     3.2076           
  477    9.520   2926.83     3.0777     3.2735     3.4660     0.1000     0.9179     0.2534     3.2497           
  478    9.540   2927.88     3.0990     3.2933     3.4862     0.1018     0.9250     0.2510     3.2824           
  479    9.560   2928.88     3.0941     3.2955     3.4888     0.0993     0.9425     0.2562     3.2065           
  480    9.580   2929.88     3.1072     3.3146     3.5083     0.0985     0.9648     0.2592     3.1682           
  481    9.600   2930.93     3.1066     3.3214     3.5154     0.0982     0.9636     0.2641     3.1670           
  482    9.620   2931.99     3.2232     3.4296     3.6240     0.1010     0.9682     0.2502     3.1586           
  483    9.640   2933.13     3.2746     3.4720     3.6668     0.1032     0.9154     0.2411     3.1466           
  484    9.660   2934.21     3.3261     3.4857     3.6809     0.1054     0.8058     0.2146     3.1826           
  485    9.680   2935.22     3.3359     3.4612     3.6568     0.1096     0.7392     0.1928     3.2828           
  486    9.700   2936.32     3.2737     3.3936     3.5896     0.1161     0.7783     0.1930     3.5371           
  487    9.720   2937.38     3.2326     3.3758     3.5722     0.1193     0.8036     0.2107     3.6736           
  488    9.740   2938.43     3.1995     3.3378     3.5346     0.1177     0.7869     0.2098     3.6761           
  489    9.760   2939.43     3.1995     3.3210     3.5181     0.1176     0.7602     0.1990     3.6770           
  490    9.780   2940.51     3.1758     3.3012     3.4987     0.1189     0.7712     0.2032     3.7299           
  491    9.800   2941.52     3.1244     3.2404     3.4382     0.1224     0.7291     0.2003     3.9040           
  492    9.820   2942.69     3.0947     3.1892     3.3874     0.1207     0.6895     0.1878     3.8715           
  493    9.840   2943.76     3.0249     3.1186     3.3172     0.1173     0.6953     0.1916     3.8418           
  494    9.860   2944.83     2.9854     3.0760     3.2750     0.1210     0.6844     0.1921     4.0573           
  495    9.880   2945.82     3.0340     3.1268     3.3261     0.1126     0.7085     0.1909     3.7284           
  496    9.900   2946.88     3.0552     3.1752     3.3749     0.1161     0.7677     0.2086     3.8069           
  497    9.920   2947.88     3.0611     3.1863     3.3865     0.1161     0.7572     0.2120     3.8058           
  498    9.940   2948.88     3.0948     3.2028     3.4033     0.1150     0.7682     0.1983     3.7288           
  499    9.960   2949.99     3.0602     3.1843     3.3852     0.1181     0.7281     0.2117     3.8342           
  500    9.980   2951.13     3.0889     3.1835     3.3848     0.1157     0.7044     0.1900     3.7885           
  501   10.000   2952.26     3.0432     3.1366     3.3383     0.1195     0.6931     0.1921     3.9131           
  502   10.020   2953.18     3.0157     3.1012     3.3033     0.1232     0.6800     0.1884     4.0882           
  503   10.040   2954.13     3.0060     3.0921     3.2946     0.1215     0.7070     0.1897     4.0392           
  504   10.060   2955.18     2.9481     3.0312     3.2339     0.1170     0.6577     0.1913     3.9451           
  505   10.080   2956.21     2.9800     3.0390     3.2422     0.1165     0.6178     0.1722     3.9134           
  506   10.100   2957.31     2.8824     2.9482     3.1517     0.1171     0.6532     0.1832     4.0345           
  507   10.120   2958.38     2.8216     2.8876     3.0915     0.1181     0.6617     0.1875     4.1743           
  508   10.140   2959.47     2.8269     2.9177     3.1220     0.1161     0.6909     0.2060     4.1090           
  509   10.160   2960.60     2.8798     2.9587     3.1634     0.1161     0.6877     0.1939     4.0942           
  510   10.180   2961.65     2.9476     3.0347     3.2398     0.1190     0.7034     0.1957     4.0718           
  511   10.200   2962.65     2.9770     3.0744     3.2799     0.1267     0.7300     0.2014     4.2504           
  512   10.220   2963.67     2.9550     3.0494     3.2553     0.1274     0.7061     0.2010     4.3099           
  513   10.240   2964.69     2.9223     3.0191     3.2253     0.1254     0.7338     0.2050     4.2753           
  514   10.260   2965.69     2.8855     2.9786     3.1852     0.1215     0.6978     0.2051     4.2181           
  515   10.280   2966.81     2.8807     2.9754     3.1824     0.1171     0.7325     0.2069     4.0636           
  516   10.300   2967.82     2.8876     2.9936     3.2009     0.1166     0.7247     0.2148     4.0452           
  517   10.320   2968.93     2.8620     2.9611     3.1689     0.1129     0.7322     0.2119     3.9481           
  518   10.340   2970.02     2.7689     2.8676     3.0757     0.1098     0.7101     0.2187     3.9216           
  519   10.360   2970.99     2.7667     2.8551     3.0636     0.1052     0.7268     0.2113     3.7915           
  520   10.380   2972.04     2.7488     2.8362     3.0450     0.1092     0.7071     0.2121     3.9786           
  521   10.400   2973.07     2.7732     2.8708     3.0801     0.1125     0.7225     0.2183     4.0547           
  522   10.420   2974.10     2.8073     2.8979     3.1075     0.1157     0.7304     0.2107     4.1309           
  523   10.440   2975.19     2.8537     2.9474     3.1574     0.1206     0.6924     0.2099     4.2516           
  524   10.460   2976.26     2.9719     3.0422     3.2526     0.1287     0.6706     0.1853     4.3822           
  525   10.480   2977.38     3.0591     3.1400     3.3507     0.1363     0.6689     0.1878     4.5055           
  526   10.500   2978.44     3.1088     3.1535     3.3647     0.1408     0.5809     0.1599     4.5612           
  527   10.520   2979.49     3.1323     3.1622     3.3737     0.1386     0.5748     0.1485     4.4300           
  528   10.540   2980.51     3.0938     3.1196     3.3315     0.1393     0.5665     0.1476     4.4792           
  529   10.560   2981.49     3.0243     3.0520     3.2643     0.1358     0.5683     0.1526     4.4685           
  530   10.580   2982.56     2.9374     2.9850     3.1976     0.1249     0.6423     0.1722     4.2345           
  531   10.600   2983.60     2.8805     2.9203     3.1334     0.1143     0.5926     0.1698     3.9463           
  532   10.620   2984.68     2.8014     2.8462     3.0596     0.1027     0.6118     0.1787     3.6366           
  533   10.640   2985.76     2.7627     2.8055     3.0193     0.0976     0.6219     0.1799     3.5201           
  534   10.660   2986.83     2.6127     2.6702     2.8844     0.0918     0.6763     0.2024     3.4826           
  535   10.680   2987.88     2.5553     2.6347     2.8493     0.0868     0.7072     0.2251     3.4007           
  536   10.700   2988.93     2.6136     2.7128     2.9278     0.0833     0.7539     0.2363     3.1960           
  537   10.720   2989.93     2.6734     2.7767     2.9920     0.0818     0.7818     0.2346     3.0894           
  538   10.740   2991.04     2.6205     2.7415     2.9572     0.0767     0.8045     0.2532     2.8963           
  539   10.760   2992.21     2.5527     2.6785     2.8946     0.0732     0.8362     0.2638     2.8365           
  540   10.780   2993.32     2.4359     2.5845     2.8010     0.0684     0.8713     0.2947     2.7521           
  541   10.800   2994.43     2.3980     2.5659     2.7828     0.0666     0.9372     0.3149     2.7646           
  542   10.820   2995.60     2.4431     2.6355     2.8527     0.0694     0.9803     0.3290     2.8437           
  543   10.840   2996.67     2.6551     2.8489     3.0665     0.0762     0.9836     0.3060     2.9404           
  544   10.860   2997.93     3.2337     3.4244     3.6424     0.0887     0.9444     0.2528     2.9565           
  545   10.880   2999.06     4.1771     4.3265     4.5449     0.0988     0.7874     0.1792     2.6337           
  546   10.900   3000.24     5.4577     5.5230     5.7417     0.1067     0.6149     0.1034     2.1443           
  547   10.920   3001.13     6.7507     6.7100     6.9292     0.1134     0.0783     0.0478     1.8599           
  548   10.940   3002.25     7.7907     7.5868     7.8063     0.1218    -0.0108    -0.0095     1.6528           
  549   10.960   3003.26     8.1010     7.8622     8.0821     0.1384    -0.0958    -0.0197     1.7306           
  550   10.980   3004.66     8.6135     8.3515     8.5718     0.1470    -0.1016    -0.0251     1.7822           
  551   11.000   3005.57     9.1326     8.8675     9.0882     0.1438    -0.1080    -0.0243     1.6508           
  552   11.020   3006.88     9.8292     9.5484     9.7695     0.1281    -0.1560    -0.0264     1.3372           
  553   11.040   3007.59    10.2189     9.9258    10.1472     0.1116    -0.1747    -0.0283     1.1072           
  554   11.060   3008.38    10.7879    10.4872    10.7090     0.0977    -0.2027    -0.0285     0.9339           
  555   11.080   3009.30    11.4453    11.1347    11.3568     0.0803    -0.2100    -0.0289     0.7183           
  556   11.100   3010.38    11.9645    11.6536    11.8762     0.0636    -0.2067    -0.0276     0.5393           
  557   11.120   3011.54    12.1780    11.8699    12.0929     0.0650    -0.2021    -0.0264     0.5358           
  558   11.140   3012.49    12.3311    12.0232    12.2465     0.0747    -0.1980    -0.0260     0.6084           
  559   11.160   3013.60    12.5160    12.2099    12.4335     0.0848    -0.1958    -0.0252     0.6801           
  560   11.180   3014.52    12.7141    12.4083    12.6324     0.0888    -0.1931    -0.0247     0.7042           
  561   11.200   3015.58    13.0712    12.7659    12.9903     0.0828    -0.1927    -0.0239     0.6381           
  562   11.220   3016.52    13.5703    13.2636    13.4885     0.0783    -0.1975    -0.0232     0.5841           
  563   11.240   3017.57    14.1405    13.8296    14.0548     0.0761    -0.2075    -0.0229     0.5439           
  564   11.260   3018.52    14.6812    14.3670    14.5926     0.0799    -0.2132    -0.0225     0.5478           
  565   11.280   3019.60    15.2041    14.8875    15.1135     0.0879    -0.2161    -0.0221     0.5831           
  566   11.300   3020.65    15.7178    15.4004    15.6268     0.1006    -0.2181    -0.0214     0.6438           
  567   11.320   3021.81    16.2044    15.8838    16.1105     0.1070    -0.2247    -0.0212     0.6648           
  568   11.340   3022.82    16.5775    16.2556    16.4827     0.1044    -0.2250    -0.0209     0.6330           
  569   11.360   3023.97    16.9969    16.6749    16.9024     0.1021    -0.2259    -0.0203     0.6043           
  570   11.380   3024.93    17.2844    16.9612    17.1891     0.0988    -0.2333    -0.0201     0.5720           
  571   11.400   3026.00    17.4119    17.0798    17.3081     0.0912    -0.2529    -0.0211     0.5238           
  572   11.420   3027.10    17.4527    17.1153    17.3440     0.0883    -0.2603    -0.0218     0.5052           
  573   11.440   3028.18    17.1971    16.8569    17.0859     0.0892    -0.2668    -0.0225     0.5137           
  574   11.460   3029.25    16.6627    16.3201    16.5495     0.0867    -0.2706    -0.0235     0.5134           
  575   11.480   3030.43    15.9827    15.6383    15.8681     0.0815    -0.2745    -0.0248     0.5079           
  576   11.500   3031.43    15.1783    14.8318    15.0619     0.0781    -0.2787    -0.0264     0.4999           
  577   11.520   3032.42    14.2966    13.9478    14.1783     0.0787    -0.2839    -0.0285     0.5350           
  578   11.540   3033.38    13.7327    13.3813    13.6122     0.0828    -0.2869    -0.0301     0.5968           
  579   11.560   3034.42    13.1329    12.7808    13.0121     0.0888    -0.2885    -0.0316     0.6701           
  580   11.580   3035.43    12.5946    12.2411    12.4728     0.0950    -0.2908    -0.0332     0.7477           
  581   11.600   3036.52    12.2273    11.8727    12.1047     0.0964    -0.2924    -0.0344     0.7834           
  582   11.620   3037.57    12.0170    11.6620    11.8944     0.0822    -0.2921    -0.0350     0.6810           
  583   11.640   3038.69    11.9238    11.5681    11.8009     0.0703    -0.2931    -0.0354     0.5887           
  584   11.660   3039.76    11.8383    11.4812    11.7144     0.0665    -0.2959    -0.0358     0.5589           
  585   11.680   3040.78    11.8332    11.4747    11.7083     0.0713    -0.2976    -0.0361     0.6040           
  586   11.700   3041.82    11.9099    11.5510    11.7849     0.0769    -0.2976    -0.0359     0.6466           
  587   11.720   3042.83    11.9236    11.5644    11.7988     0.0684    -0.2971    -0.0358     0.5732           
  588   11.740   3043.88    11.8177    11.4582    11.6929     0.0651    -0.2976    -0.0362     0.5496           
  589   11.760   3044.97    11.6981    11.3380    11.5731     0.0626    -0.2975    -0.0366     0.5338           
  590   11.780   3046.04    11.6490    11.2883    11.5238     0.0621    -0.2990    -0.0369     0.5319           
  591   11.800   3047.15    11.6318    11.2692    11.5050     0.0622    -0.3033    -0.0372     0.5351           
  592   11.820   3048.26    11.6413    11.2775    11.5138     0.0608    -0.3035    -0.0374     0.5229           
  593   11.840   3049.28    11.7340    11.3699    11.6065     0.0643    -0.3033    -0.0371     0.5501           
  594   11.860   3050.32    11.8262    11.4617    11.6987     0.0683    -0.3047    -0.0368     0.5783           
  595   11.880   3051.38    11.9876    11.6214    11.8588     0.0823    -0.3070    -0.0366     0.6886           
  596   11.900   3052.42    12.1476    11.7809    12.0186     0.0959    -0.3074    -0.0362     0.7914           
  597   11.920   3053.43    12.3897    12.0225    12.2606     0.1124    -0.3074    -0.0355     0.9088           
  598   11.940   3054.49    12.8019    12.4344    12.6729     0.1220    -0.3065    -0.0343     0.9578           
  599   11.960   3055.54    13.4178    13.0503    13.2892     0.1264    -0.3059    -0.0326     0.9488           
  600   11.980   3056.71    14.4399    14.0721    14.3113     0.1084    -0.3065    -0.0303     0.7630           
  601   12.000   3057.82    15.6873    15.3187    15.5584     0.0978    -0.3070    -0.0279     0.6360           
  602   12.020   3058.93    16.8479    16.4788    16.7188     0.0980    -0.3070    -0.0259     0.5932           
  603   12.040   3060.01    17.8841    17.5148    17.7552     0.0980    -0.3072    -0.0244     0.5550           
  604   12.060   3060.94    18.4121    18.0418    18.2826     0.0870    -0.3083    -0.0238     0.4746           
  605   12.080   3062.04    18.5913    18.2207    18.4619     0.0814    -0.3080    -0.0235     0.4375           
  606   12.100   3063.13    18.2724    17.9010    18.1425     0.0774    -0.3099    -0.0240     0.4205           
  607   12.120   3064.23    17.8016    17.4288    17.6707     0.0828    -0.3120    -0.0248     0.4606           
  608   12.140   3065.26    17.3136    16.9401    17.1824     0.0843    -0.3123    -0.0256     0.4831           
  609   12.160   3066.42    16.8719    16.4981    16.7408     0.0873    -0.3120    -0.0263     0.5120           
  610   12.180   3067.43    16.4388    16.0649    16.3079     0.0936    -0.3117    -0.0270     0.5639           
  611   12.200   3068.45    16.0793    15.7049    15.9484     0.0995    -0.3121    -0.0276     0.6164           
  612   12.220   3069.38    15.6776    15.3028    15.5466     0.0998    -0.3116    -0.0284     0.6351           
  613   12.240   3070.49    15.4728    15.0980    15.3422     0.0966    -0.3107    -0.0287     0.6237           
  614   12.260   3071.60    15.5434    15.1687    15.4133     0.0900    -0.3094    -0.0285     0.5802           
  615   12.280   3072.65    15.8239    15.4494    15.6944     0.0861    -0.3081    -0.0279     0.5471           
  616   12.300   3073.81    16.0986    15.7243    15.9697     0.0833    -0.3066    -0.0274     0.5185           
  617   12.320   3074.88    16.2239    15.8495    16.0952     0.0845    -0.3062    -0.0271     0.5218           
  618   12.340   3075.98    16.6168    16.2425    16.4886     0.0910    -0.3056    -0.0264     0.5517           
  619   12.360   3076.93    16.9714    16.5969    16.8434     0.0989    -0.3046    -0.0258     0.5852           
  620   12.380   3078.02    17.2951    16.9206    17.1675     0.1083    -0.3033    -0.0253     0.6293           
  621   12.400   3079.13    17.7122    17.3378    17.5850     0.1160    -0.3024    -0.0246     0.6574           
  622   12.420   3080.15    17.9568    17.5827    17.8303     0.1222    -0.3008    -0.0242     0.6815           
  623   12.440   3081.22    18.1159    17.7420    17.9900     0.1285    -0.2992    -0.0239     0.7103           
  624   12.460   3082.27    18.2286    17.8551    18.1035     0.1338    -0.2975    -0.0237     0.7357           
  625   12.480   3083.43    18.2985    17.9254    18.1741     0.1353    -0.2953    -0.0235     0.7399           
  626   12.500   3084.52    18.3973    18.0246    18.2737     0.1350    -0.2939    -0.0233     0.7347           
  627   12.520   3085.56    18.3823    18.0100    18.2596     0.1359    -0.2916    -0.0232     0.7387           
  628   12.540   3086.60    18.2938    17.9219    18.1718     0.1382    -0.2900    -0.0232     0.7543           
  629   12.560   3087.76    18.0582    17.6869    17.9372     0.1380    -0.2875    -0.0234     0.7606           
  630   12.580   3088.88    17.6410    17.2703    17.5209     0.1344    -0.2857    -0.0238     0.7550           
  631   12.600   3089.88    17.1425    16.7718    17.0228     0.1320    -0.2841    -0.0245     0.7606           
  632   12.620   3090.88    16.6757    16.3054    16.5568     0.1328    -0.2826    -0.0251     0.7874           
  633   12.640   3091.99    16.2622    15.8924    16.1442     0.1336    -0.2801    -0.0256     0.8205           
  634   12.660   3093.06    15.9557    15.5865    15.8387     0.1327    -0.2779    -0.0260     0.8247           
  635   12.680   3094.13    15.5615    15.1929    15.4454     0.1305    -0.2756    -0.0265     0.8281           
  636   12.700   3095.07    15.1698    14.8017    15.0547     0.1279    -0.2735    -0.0271     0.8363           
  637   12.720   3096.04    14.8590    14.4914    14.7447     0.1310    -0.2714    -0.0276     0.8773           
  638   12.740   3097.08    14.6138    14.2469    14.5006     0.1295    -0.2685    -0.0279     0.8835           
  639   12.760   3098.13    14.3783    14.0123    14.2663     0.1238    -0.2654    -0.0281     0.8599           
  640   12.780   3099.26    14.3135    13.9485    14.2030     0.1113    -0.2622    -0.0280     0.7780           
  641   12.800   3100.31    14.3550    13.9909    14.2458     0.1035    -0.2589    -0.0277     0.7216           
  642   12.820   3101.42    14.5826    14.2194    14.4747     0.0916    -0.2557    -0.0271     0.6312           
  643   12.840   3102.52    14.8624    14.5002    14.7558     0.0797    -0.2538    -0.0264     0.5398           
  644   12.860   3103.57    15.1951    14.8319    15.0879     0.0715    -0.2549    -0.0259     0.4740           
  645   12.880   3104.60    15.4898    15.1260    15.3824     0.0728    -0.2563    -0.0254     0.4712           
  646   12.900   3105.65    15.7632    15.3971    15.6538     0.0736    -0.2612    -0.0253     0.4681           
  647   12.920   3106.73    16.0268    15.6606    15.9177     0.0769    -0.2594    -0.0248     0.4808           
  648   12.940   3107.76    16.1324    15.7660    16.0235     0.0825    -0.2592    -0.0247     0.5124           
  649   12.960   3108.88    16.2416    15.8748    16.1327     0.0914    -0.2594    -0.0245     0.5651           
  650   12.980   3109.95    16.3350    15.9680    16.2263     0.0972    -0.2582    -0.0243     0.5958           
  651   13.000   3111.10    16.4063    16.0396    16.2983     0.1011    -0.2567    -0.0241     0.6192           
  652   13.020   3112.15    16.3709    16.0046    16.2636     0.1039    -0.2548    -0.0241     0.6340           
  653   13.040   3113.13    16.4193    16.0535    16.3129     0.1066    -0.2527    -0.0239     0.6500           
  654   13.060   3114.07    16.5569    16.1917    16.4515     0.1076    -0.2503    -0.0236     0.6504           
  655   13.080   3115.18    16.8009    16.4366    16.6967     0.1101    -0.2471    -0.0230     0.6565           
  656   13.100   3116.22    16.9463    16.5823    16.8429     0.1126    -0.2451    -0.0227     0.6651           
  657   13.120   3117.27    16.9806    16.6176    16.8785     0.1160    -0.2429    -0.0225     0.6834           
  658   13.140   3118.44    16.9442    16.5819    16.8432     0.1189    -0.2390    -0.0224     0.7011           
  659   13.160   3119.52    16.9532    16.5916    16.8533     0.1217    -0.2373    -0.0223     0.7169           
  660   13.180   3120.60    16.8635    16.5026    16.7646     0.1284    -0.2348    -0.0223     0.7604           
  661   13.200   3121.57    16.7064    16.3465    16.6090     0.1311    -0.2305    -0.0223     0.7837           
  662   13.220   3122.63    16.6247    16.2660    16.5289     0.1318    -0.2272    -0.0222     0.7928           
  663   13.240   3123.69    16.6175    16.2599    16.5231     0.1296    -0.2234    -0.0220     0.7799           
  664   13.260   3124.72    16.5845    16.2279    16.4915     0.1271    -0.2200    -0.0218     0.7663           
  665   13.280   3125.82    16.5898    16.2347    16.4987     0.1246    -0.2165    -0.0215     0.7515           
  666   13.300   3126.97    16.4682    16.1138    16.3782     0.1215    -0.2128    -0.0215     0.7368           
  667   13.320   3128.04    16.4256    16.0726    16.3374     0.1179    -0.2082    -0.0214     0.7172           
  668   13.340   3129.10    16.4299    16.0780    16.3431     0.1143    -0.2051    -0.0211     0.6956           
  669   13.360   3130.15    16.5197    16.1693    16.4348     0.1146    -0.2011    -0.0208     0.6946           
  670   13.380   3131.23    16.5684    16.2187    16.4845     0.1154    -0.1985    -0.0206     0.6966           
  671   13.400   3132.26    16.6525    16.3038    16.5701     0.1195    -0.1950    -0.0202     0.7185           
  672   13.420   3133.28    16.7047    16.3568    16.6235     0.1223    -0.1919    -0.0200     0.7325           
  673   13.440   3134.32    16.6304    16.2836    16.5506     0.1244    -0.1884    -0.0199     0.7467           
  674   13.460   3135.43    16.4913    16.1455    16.4129     0.1270    -0.1858    -0.0199     0.7673           
  675   13.480   3136.54    16.1662    15.8217    16.0895     0.1280    -0.1820    -0.0201     0.7867           
  676   13.500   3137.65    15.9128    15.5696    15.8377     0.1284    -0.1775    -0.0201     0.8023           
  677   13.520   3138.69    15.6965    15.3542    15.6227     0.1258    -0.1743    -0.0202     0.7983           
  678   13.540   3139.65    15.6344    15.2935    15.5624     0.1231    -0.1702    -0.0201     0.7867           
  679   13.560   3140.72    15.6572    15.3177    15.5870     0.1215    -0.1655    -0.0198     0.7765           
  680   13.580   3141.76    15.7056    15.3678    15.6375     0.1185    -0.1606    -0.0194     0.7548           
  681   13.600   3142.88    15.6233    15.2873    15.5573     0.1154    -0.1571    -0.0192     0.7362           
  682   13.620   3143.93    15.5428    15.2075    15.4779     0.1121    -0.1528    -0.0191     0.7195           
  683   13.640   3145.06    15.3004    14.9668    15.2376     0.1100    -0.1481    -0.0191     0.7157           
  684   13.660   3146.13    15.1501    14.8177    15.0889     0.1077    -0.1455    -0.0191     0.7088           
  685   13.680   3147.17    14.9988    14.6662    14.9377     0.1050    -0.1456    -0.0192     0.6999           
  686   13.700   3148.18    14.9786    14.6463    14.9183     0.0995    -0.1433    -0.0192     0.6650           
  687   13.720   3149.19    15.0220    14.6897    14.9620     0.0950    -0.1431    -0.0191     0.6327           
  688   13.740   3150.22    15.0796    14.7465    15.0192     0.0937    -0.1429    -0.0191     0.6222           
  689   13.760   3151.32    15.1524    14.8199    15.0930     0.0921    -0.1410    -0.0188     0.6087           
  690   13.780   3152.44    15.2397    14.9065    15.1800     0.0891    -0.1445    -0.0188     0.5855           
  691   13.800   3153.54    15.3782    15.0415    15.3153     0.0892    -0.1528    -0.0191     0.5814           
  692   13.820   3154.65    15.4849    15.1470    15.4213     0.0946    -0.1515    -0.0191     0.6115           
  693   13.840   3155.76    15.7475    15.4093    15.6840     0.0999    -0.1499    -0.0188     0.6400           
  694   13.860   3156.82    16.1768    15.8388    16.1137     0.1038    -0.1521    -0.0182     0.6483           
  695   13.880   3157.82    16.6490    16.3074    16.5828     0.1077    -0.1571    -0.0182     0.6525           
  696   13.900   3158.88    17.1684    16.8287    17.1045     0.1133    -0.1503    -0.0173     0.6643           
  697   13.920   3159.88    17.7290    17.3913    17.6674     0.1205    -0.1447    -0.0164     0.6842           
  698   13.940   3160.93    18.1688    17.8321    18.1086     0.1268    -0.1422    -0.0158     0.7016           
  699   13.960   3161.99    18.4556    18.1197    18.3966     0.1319    -0.1388    -0.0155     0.7182           
  700   13.980   3163.13    18.7863    18.4530    18.7303     0.1389    -0.1323    -0.0148     0.7440           
  701   14.000   3164.21    19.1610    18.8292    19.1068     0.1467    -0.1272    -0.0143     0.7711           
  702   14.020   3165.24    19.5206    19.1906    19.4687     0.1545    -0.1214    -0.0138     0.7957           
  703   14.040   3166.24    19.8454    19.5177    19.7961     0.1609    -0.1151    -0.0132     0.8132           
  704   14.060   3167.27    20.0582    19.7324    20.0112     0.1673    -0.1106    -0.0128     0.8353           
  705   14.080   3168.32    20.1650    19.8413    20.1204     0.1718    -0.1032    -0.0124     0.8526           
  706   14.100   3169.38    20.1923    19.8711    20.1507     0.1766    -0.0959    -0.0121     0.8750           
  707   14.120   3170.49    20.2282    19.9094    20.1894     0.1812    -0.0902    -0.0117     0.8961           
  708   14.140   3171.56    20.2723    19.9558    20.2361     0.1862    -0.0836    -0.0114     0.9192           
  709   14.160   3172.71    20.3448    20.0310    20.3117     0.1895    -0.0765    -0.0110     0.9325           
  710   14.180   3173.72    20.4266    20.1153    20.3963     0.1931    -0.0694    -0.0106     0.9467           
  711   14.200   3174.77    20.4539    20.1449    20.4264     0.1958    -0.0633    -0.0103     0.9574           
  712   14.220   3175.82    20.4581    20.1522    20.4341     0.1983    -0.0546    -0.0099     0.9696           
  713   14.240   3176.88    20.3345    20.0306    20.3128     0.2006    -0.0492    -0.0097     0.9852           
  714   14.260   3177.93    20.1751    19.8735    20.1561     0.2023    -0.0424    -0.0095     1.0016           
  715   14.280   3179.02    19.9902    19.6908    19.9737     0.2016    -0.0364    -0.0092     1.0068           
  716   14.300   3180.13    19.8137    19.5160    19.7993     0.2015    -0.0322    -0.0091     1.0148           
  717   14.320   3181.19    19.6409    19.3449    19.6286     0.2002    -0.0274    -0.0089     1.0176           
  718   14.340   3182.27    19.5380    19.2437    19.5278     0.1999    -0.0221    -0.0087     1.0215           
  719   14.360   3183.32    19.5063    19.2137    19.4982     0.1998    -0.0172    -0.0085     1.0237           
  720   14.380   3184.38    19.4583    19.1679    19.4528     0.1993    -0.0124    -0.0082     1.0235           
  721   14.400   3185.43    19.3308    19.0422    19.3275     0.1983    -0.0082    -0.0080     1.0247           
  722   14.420   3186.49    19.1090    18.8207    19.1063     0.1967    -0.0056    -0.0080     1.0271           
  723   14.440   3187.54    18.7626    18.4745    18.7605     0.1940    -0.0039    -0.0081     1.0289           
  724   14.460   3188.65    18.3169    18.0295    18.3159     0.1902    -0.0016    -0.0082     1.0312           
  725   14.480   3189.75    17.7944    17.5076    17.7944     0.1848     0.0006    -0.0083     1.0282           
  726   14.500   3190.88    17.3112    17.0241    17.3112     0.1775     0.0007    -0.0085     1.0153           
  727   14.520   3191.88    16.8801    16.5943    16.8818     0.1686     0.0043    -0.0085     0.9908           
  728   14.540   3192.92    16.4471    16.1612    16.4491     0.1578     0.0057    -0.0087     0.9539           
  729   14.560   3193.93    15.9998    15.7137    16.0020     0.1510     0.0050    -0.0089     0.9390           
  730   14.580   3194.97    15.5727    15.2870    15.5756     0.1417     0.0045    -0.0091     0.9062           
  731   14.600   3196.04    15.1896    14.9020    15.1910     0.1351     0.0038    -0.0096     0.8849           
  732   14.620   3197.13    14.8442    14.5559    14.8454     0.1290     0.0027    -0.0099     0.8645           
  733   14.640   3198.26    14.5471    14.2590    14.5488     0.1245     0.0060    -0.0100     0.8534           
  734   14.660   3199.28    14.4613    14.1734    14.4635     0.1206     0.0062    -0.0100     0.8338           
  735   14.680   3200.38    14.5298    14.2419    14.5325     0.1167     0.0057    -0.0099     0.8049           
  736   14.700   3201.38    14.6496    14.3597    14.6506     0.1157    -0.0011    -0.0101     0.7910           
  737   14.720   3202.43    14.7704    14.4785    14.7699     0.1231    -0.0047    -0.0103     0.8343           
  738   14.740   3203.44    15.0213    14.7263    15.0180     0.1295    -0.0069    -0.0105     0.8641           
  739   14.760   3204.54    15.5454    15.2509    15.5430     0.1151    -0.0052    -0.0101     0.7461           
  740   14.780   3205.63    16.4056    16.1111    16.4036     0.0964    -0.0063    -0.0095     0.5952           
  741   14.800   3206.76    17.6866    17.3850    17.6779     0.0856    -0.0272    -0.0097     0.4914           
  742   14.820   3207.88    18.8075    18.4850    18.7782     0.0814    -0.0897    -0.0118     0.4396           
  743   14.840   3208.92    19.5738    19.2360    19.5296     0.0857    -0.1045    -0.0132     0.4430           
  744   14.860   3209.97    20.1831    19.8356    20.1296     0.0906    -0.1309    -0.0139     0.4510           
  745   14.880   3211.02    20.4902    20.1413    20.4356     0.0987    -0.1300    -0.0138     0.4825           
  746   14.900   3212.10    20.8010    20.4513    20.7461     0.1056    -0.1314    -0.0137     0.5092           
  747   14.920   3213.13    21.3678    21.0176    21.3128     0.1113    -0.1314    -0.0133     0.5231           
  748   14.940   3214.21    21.8263    21.4778    21.7733     0.1152    -0.1252    -0.0128     0.5295           
  749   14.960   3215.27    21.8026    21.4530    21.7489     0.1206    -0.1285    -0.0129     0.5520           
  750   14.980   3216.43    21.5298    21.1803    21.4766     0.1222    -0.1258    -0.0131     0.5646           
  751   15.000   3217.49    21.1736    20.8251    21.1218     0.1182    -0.1215    -0.0131     0.5557           
  752   15.020   3218.57    20.9875    20.6402    20.9373     0.1197    -0.1163    -0.0131     0.5690           
  753   15.040   3219.54    20.8462    20.5004    20.7978     0.1215    -0.1143    -0.0130     0.5816           
  754   15.060   3220.57    20.7626    20.4173    20.7151     0.1243    -0.1129    -0.0129     0.5986           
  755   15.080   3221.60    20.7865    20.4419    20.7401     0.1271    -0.1104    -0.0128     0.6116           
  756   15.100   3222.71    20.6780    20.3329    20.6315     0.1288    -0.1092    -0.0129     0.6215           
  757   15.120   3223.76    20.6010    20.2579    20.5568     0.1327    -0.1030    -0.0127     0.6437           
  758   15.140   3224.92    20.4651    20.1242    20.4235     0.1376    -0.0971    -0.0124     0.6713           
  759   15.160   3225.99    20.2784    19.9394    20.2391     0.1420    -0.0927    -0.0123     0.6981           
  760   15.180   3227.01    20.0807    19.7432    20.0433     0.1440    -0.0869    -0.0122     0.7157           
  761   15.200   3227.99    20.0635    19.7276    20.0281     0.1424    -0.0816    -0.0120     0.7102           
  762   15.220   3229.07    20.2086    19.8760    20.1769     0.1410    -0.0726    -0.0115     0.6980           
  763   15.240   3230.15    20.2620    19.9342    20.2354     0.1411    -0.0604    -0.0108     0.6969           
  764   15.260   3231.22    20.3429    20.0171    20.3187     0.1411    -0.0554    -0.0105     0.6939           
  765   15.280   3232.32    20.3829    20.0604    20.3624     0.1393    -0.0468    -0.0101     0.6836           
  766   15.300   3233.38    20.2227    19.9026    20.2049     0.1399    -0.0394    -0.0098     0.6896           
  767   15.320   3234.54    19.6392    19.3222    19.6250     0.1512    -0.0303    -0.0097     0.7603           
  768   15.340   3235.60    18.9243    18.6099    18.9130     0.1761    -0.0272    -0.0097     0.9166           
  769   15.360   3236.63    17.9092    17.5939    17.8974     0.2197    -0.0279    -0.0103     1.1990           
  770   15.380   3237.65    16.2594    15.9440    16.2479     0.2751    -0.0267    -0.0114     1.6215           
  771   15.400   3238.71    13.6212    13.3068    13.6110     0.3123    -0.0227    -0.0134     2.1411           
  772   15.420   3239.68    10.9311    10.6171    10.9217     0.3182    -0.0211    -0.0167     2.7063           
  773   15.440   3240.81     8.6197     8.3140     8.6190     0.3100     0.0168    -0.0188     3.3096           
  774   15.460   3241.82     7.4300     7.1591     7.4645     0.2903     0.1360    -0.0101     3.6746           
  775   15.480   3242.92     6.2497     6.0421     6.3478     0.2644     0.2642     0.0131     3.9038           
  776   15.500   3243.93     5.2091     5.0336     5.3397     0.2242     0.3587     0.0311     3.9994           
  777   15.520   3245.01     4.6941     4.5909     4.8974     0.1743     0.5543     0.0717     3.5967           
  778   15.540   3245.97     4.5666     4.5658     4.8728     0.1270     0.8335     0.1257     2.7553           
  779   15.560   3246.97     4.4522     4.5673     4.8746     0.1017     1.0750     0.1861     2.2754           
  780   15.580   3248.02     4.4164     4.5788     4.8865     0.1032     1.0989     0.2104     2.3377           
  781   15.600   3249.07     4.3264     4.4736     4.7816     0.1075     1.0975     0.2075     2.4473           
  782   15.620   3250.15     4.1776     4.3421     4.6505     0.1148     1.1393     0.2233     2.7337           
  783   15.640   3251.22     4.1040     4.2938     4.6026     0.1246     1.1896     0.2401     3.0220           
  784   15.660   3252.32     4.0937     4.2752     4.5844     0.1302     1.1785     0.2367     3.1778           
  785   15.680   3253.38     4.0430     4.2315     4.5411     0.1347     1.2023     0.2432     3.3313           
  786   15.700   3254.43     4.0837     4.2900     4.6000     0.1359     1.2097     0.2499     3.3280           
  787   15.720   3255.34     4.0420     4.2483     4.5586     0.1322     1.2752     0.2525     3.2688           
  788   15.740   3256.54     3.9321     4.1640     4.4747     0.1303     1.2906     0.2725     3.3039           
  789   15.760   3257.60     3.9111     4.1466     4.4577     0.1287     1.3304     0.2758     3.2835           
  790   15.780   3258.60     3.9234     4.1692     4.4807     0.1254     1.3105     0.2804     3.2042           
  791   15.800   3259.71     3.9769     4.2224     4.5342     0.1274     1.3245     0.2768     3.1988           
  792   15.820   3260.81     3.8961     4.1170     4.4292     0.1262     1.2384     0.2699     3.2333           
  793   15.840   3261.88     3.9044     4.1106     4.4232     0.1286     1.2524     0.2620     3.2928           
  794   15.860   3262.93     3.8943     4.1047     4.4176     0.1303     1.2584     0.2649     3.3462           
  795   15.880   3263.93     3.8706     4.0789     4.3923     0.1353     1.2414     0.2656     3.4876           
  796   15.900   3264.99     3.8406     4.0572     4.3709     0.1340     1.2575     0.2720     3.4833           
  797   15.920   3266.04     3.8532     4.0625     4.3766     0.1354     1.2573     0.2676     3.5328           
  798   15.940   3267.06     3.9791     4.1859     4.5004     0.1338     1.2169     0.2585     3.3910           
  799   15.960   3268.15     3.9672     4.1546     4.4695     0.1323     1.1970     0.2495     3.3027           
  800   15.980   3269.26     3.7698     3.9636     4.2789     0.1331     1.2136     0.2655     3.4741           
  801   16.000   3270.42     3.7186     3.9189     4.2346     0.1343     1.2289     0.2727     3.6146           
  802   16.020   3271.42     3.6693     3.8632     4.1793     0.1338     1.1937     0.2728     3.6247           
  803   16.040   3272.42     3.6465     3.8207     4.1371     0.1277     1.1629     0.2638     3.5070           
  804   16.060   3273.43     3.6815     3.8316     4.1484     0.1392     1.0901     0.2482     3.7927           
  805   16.080   3274.47     3.7498     3.8885     4.2057     0.1470     1.0923     0.2378     3.9215           
  806   16.100   3275.52     3.6954     3.8344     4.1519     0.1519     1.0960     0.2415     4.0989           
  807   16.120   3276.57     3.6603     3.7694     4.0873     0.1558     0.9414     0.2269     4.2450           
  808   16.140   3277.71     3.6550     3.7127     4.0310     0.1558     0.9151     0.1977     4.2214           
  809   16.160   3278.77     3.4411     3.5060     3.8247     0.1571     0.9228     0.2144     4.4789           
  810   16.180   3279.82     3.2991     3.3762     3.6953     0.1593     0.9550     0.2314     4.7714           
  811   16.200   3280.83     3.3245     3.4235     3.7430     0.1493     1.0113     0.2437     4.5038           
  812   16.220   3281.88     3.3559     3.4681     3.7879     0.1445     1.0414     0.2498     4.3168           
  813   16.240   3282.93     3.3392     3.4590     3.7792     0.1433     1.0625     0.2559     4.2956           
  814   16.260   3284.00     3.3372     3.4784     3.7990     0.1325     1.1165     0.2694     3.9742           
  815   16.280   3285.06     3.3803     3.5481     3.8690     0.1295     1.1858     0.2821     3.8348           
  816   16.300   3286.19     3.4031     3.5890     3.9104     0.1282     1.2294     0.2911     3.7741           
  817   16.320   3287.26     3.4032     3.6226     3.9443     0.1264     1.3313     0.3106     3.7061           
  818   16.340   3288.32     3.3648     3.6109     3.9330     0.1201     1.3173     0.3294     3.5399           
  819   16.360   3289.38     3.5402     3.7358     4.0583     0.1207     1.2279     0.2864     3.4777           
  820   16.380   3290.42     3.6312     3.8151     4.1380     0.1288     1.2193     0.2733     3.5684           
  821   16.400   3291.47     3.8425     4.0242     4.3475     0.1370     1.1861     0.2581     3.6225           
  822   16.420   3292.51     4.1170     4.2723     4.5959     0.1363     1.0957     0.2286     3.3451           
  823   16.440   3293.60     4.3657     4.4349     4.7589     0.1339     0.8561     0.1739     3.0947           
  824   16.460   3294.65     3.9597     3.9515     4.2759     0.1355     0.7194     0.1487     3.2768           
  825   16.480   3295.76     3.5610     3.5702     3.8950     0.1377     0.8683     0.1768     3.7131           
  826   16.500   3296.82     3.3162     3.3777     3.7029     0.1418     0.9404     0.2237     4.2089           
  827   16.520   3297.88     3.2755     3.3523     3.6778     0.1326     0.9438     0.2365     4.0469           
  828   16.540   3298.83     3.2856     3.3671     3.6930     0.1225     1.0028     0.2389     3.7335           
  829   16.560   3299.93     3.3064     3.4132     3.7395     0.1308     1.0477     0.2536     3.9589           
  830   16.580   3300.93     3.2971     3.4269     3.7536     0.1369     1.1015     0.2688     4.1407           
  831   16.600   3302.00     3.2720     3.4055     3.7325     0.1391     1.0789     0.2732     4.2571           
  832   16.620   3303.06     3.3224     3.4457     3.7732     0.1365     1.0679     0.2633     4.1205           
  833   16.640   3304.21     3.2864     3.4129     3.7407     0.1381     1.0893     0.2682     4.1698           
  834   16.660   3305.32     3.2135     3.3509     3.6791     0.1451     1.1092     0.2811     4.4904           
  835   16.680   3306.38     3.2030     3.3365     3.6651     0.1406     1.1101     0.2798     4.3929           
  836   16.700   3307.32     3.1991     3.3417     3.6707     0.1405     1.1164     0.2860     4.3888           
  837   16.720   3308.38     3.3015     3.4302     3.7595     0.1395     1.0895     0.2692     4.2429           
  838   16.740   3309.43     3.3142     3.4461     3.7758     0.1354     1.1277     0.2703     4.0796           
  839   16.760   3310.52     3.2978     3.4626     3.7926     0.1300     1.1678     0.2918     3.9432           
  840   16.780   3311.60     3.3869     3.5491     3.8795     0.1326     1.1916     0.2832     3.9631           
  841   16.800   3312.65     3.6234     3.8240     4.1548     0.1361     1.2938     0.2869     3.8280           
  842   16.820   3313.81     4.0907     4.3009     4.6321     0.1376     1.2270     0.2607     3.4891           
  843   16.840   3314.88     4.7276     4.8553     5.1869     0.1388     1.0247     0.1906     3.0569           
  844   16.860   3315.83     4.9703     5.0176     5.3496     0.1316     0.8442     0.1464     2.6511           
  845   16.880   3316.88     5.0746     5.1144     5.4468     0.1222     0.9626     0.1403     2.3838           
  846   16.900   3317.99     5.3128     5.3497     5.6824     0.1430     0.8707     0.1330     2.7584           
  847   16.920   3319.13     5.9078     5.9757     6.3089     0.1744     0.9725     0.1316     3.0238           
  848   16.940   3320.15     7.5773     7.6862     8.0197     0.2013     1.1081     0.1152     2.7976           
  849   16.960   3321.26    11.8656    11.8985    12.2323     0.2416     0.6493     0.0606     2.2398           
  850   16.980   3322.38    17.8580    17.6489    17.9832     0.2680     0.0726     0.0073     1.6278           
  851   17.000   3323.54    22.9890    22.6666    23.0012     0.2837     0.0454    -0.0062     1.2998           
  852   17.020   3324.57    25.2525    24.9414    25.2764     0.3026     0.0095    -0.0045     1.2250           
  853   17.040   3325.60    27.6180    27.2777    27.6132     0.3231    -0.0090    -0.0067     1.1775           
  854   17.060   3326.63    30.1796    29.8499    30.1857     0.3666     0.0138    -0.0052     1.2491           
  855   17.080   3327.71    32.4973    32.1380    32.4742     0.4122    -0.0881    -0.0070     1.2770           
  856   17.100   3328.82    34.5302    34.1473    34.4838     0.4361    -0.1156    -0.0082     1.2709           
  857   17.120   3329.92    35.9170    35.5335    35.8704     0.4411    -0.1154    -0.0079     1.2325           
  858   17.140   3331.06    36.3142    35.9234    36.2607     0.5056    -0.1332    -0.0083     1.3896           
  859   17.160   3332.17    36.0661    35.6683    36.0060     0.5594    -0.1466    -0.0088     1.5501           
  860   17.180   3333.19    36.0168    35.6180    35.9560     0.5643    -0.1481    -0.0089     1.5657           
  861   17.200   3334.31    36.5425    36.1365    36.4750     0.5352    -0.1734    -0.0092     1.4700           
  862   17.220   3335.32    36.0375    35.6144    35.9533     0.4762    -0.2070    -0.0105     1.3180           
  863   17.240   3336.38    34.2094    33.7824    34.1216     0.4128    -0.2143    -0.0113     1.1992           
  864   17.260   3337.49    31.8136    31.3830    31.7226     0.3321    -0.2146    -0.0124     1.0373           
  865   17.280   3338.60    30.4506    30.0236    30.3635     0.3212    -0.2041    -0.0127     1.0467           
  866   17.300   3339.71    28.7858    28.3688    28.7092     0.3511    -0.1776    -0.0125     1.2016           
  867   17.320   3340.82    27.4704    27.0558    27.3965     0.3832    -0.1684    -0.0129     1.3733           
  868   17.340   3341.92    25.7376    25.3290    25.6701     0.3916    -0.1717    -0.0132     1.4889           
  869   17.360   3342.97    24.2262    23.8056    24.1471     0.4075    -0.1858    -0.0152     1.6519           
  870   17.380   3343.99    21.7145    21.2958    21.6377     0.4026    -0.1808    -0.0168     1.8104           
  871   17.400   3345.02    19.2393    18.8224    19.1647     0.4212    -0.1654    -0.0187     2.1527           
  872   17.420   3346.10    17.3617    16.9550    17.2976     0.4503    -0.1610    -0.0193     2.5484           
  873   17.440   3347.18    15.1430    14.7306    15.0736     0.4549    -0.1669    -0.0231     2.8884           
  874   17.460   3348.22    13.2609    12.8478    13.1912     0.4054    -0.1689    -0.0265     2.9389           
  875   17.480   3349.32    11.7001    11.2840    11.6278     0.3611    -0.1716    -0.0308     3.0114           
  876   17.500   3350.47    10.3131     9.9009    10.2451     0.3175    -0.1557    -0.0340     2.9558           
  877   17.520   3351.49     8.9709     8.5734     8.9179     0.2831    -0.0982    -0.0351     3.0620           
  878   17.540   3352.52     8.9727     8.6218     8.9667     0.2632     0.0089    -0.0222     3.0501           
  879   17.560   3353.56    12.3598    12.0188    12.3641     0.2535     0.0205    -0.0139     2.1513           
  880   17.580   3354.65    15.6320    15.3017    15.6473     0.2601     0.0154    -0.0091     1.7136           
  881   17.600   3355.73    16.7648    16.4096    16.7556     0.2973    -0.0345    -0.0121     1.7705           
  882   17.620   3356.82    16.0017    15.6314    15.9778     0.3453    -0.0676    -0.0149     2.1283           
  883   17.640   3357.88    14.7567    14.3763    14.7231     0.3867    -0.0879    -0.0178     2.5719           
  884   17.660   3359.02    14.1421    13.7602    14.1074     0.4056    -0.0740    -0.0188     2.8341           
  885   17.680   3360.07    13.6316    13.2595    13.6071     0.3874    -0.0488    -0.0177     2.8213           
  886   17.700   3361.13    13.6432    13.2765    13.6244     0.3526    -0.0388    -0.0167     2.5824           
  887   17.720   3362.15    13.8375    13.4783    13.8266     0.3286    -0.0217    -0.0151     2.3889           
  888   17.740   3363.22    14.6799    14.3198    14.6685     0.3116    -0.0205    -0.0143     2.1309           
  889   17.760   3364.31    14.1394    13.7803    14.1294     0.2955    -0.0486    -0.0146     2.0679           
  890   17.780   3365.38    13.1243    12.7372    13.0866     0.2743    -0.0997    -0.0210     2.0422           
  891   17.800   3366.44    11.2243    10.8281    11.1780     0.2580    -0.1122    -0.0266     2.2257           
  892   17.820   3367.60     9.7047     9.3098     9.6601     0.2343    -0.0996    -0.0306     2.3172           
  893   17.840   3368.65     8.3702     7.9850     8.3356     0.2311    -0.0684    -0.0327     2.6281           
  894   17.860   3369.67     7.3253     6.9560     7.3070     0.2402    -0.0354    -0.0320     3.1777           
  895   17.880   3370.69     6.3834     6.0224     6.3738     0.2271    -0.0134    -0.0335     3.5054           
  896   17.900   3371.82     5.7329     5.3867     5.7385     0.2022     0.0217    -0.0308     3.4707           
  897   17.920   3372.82     5.5998     5.2595     5.6117     0.1846     0.0338    -0.0287     3.2963           
  898   17.940   3373.93     5.5380     5.2026     5.5551     0.1760     0.0501    -0.0267     3.1581           
  899   17.960   3374.94     5.3345     5.0111     5.3640     0.1744     0.0886    -0.0218     3.2281           
  900   17.980   3376.10     5.1248     4.8205     5.1737     0.1833     0.1174    -0.0131     3.5167           
  901   18.000   3377.24     5.0743     4.7666     5.1202     0.1938     0.1129    -0.0148     3.8123           
  902   18.020   3378.31     4.9569     4.6578     5.0118     0.1901     0.1331    -0.0106     3.7856           
  903   18.040   3379.24     4.8555     4.5573     4.9117     0.1761     0.1352    -0.0103     3.6253           
  904   18.060   3380.22     4.8387     4.5413     4.8961     0.1663     0.1366    -0.0097     3.4329           
  905   18.080   3381.26     4.8325     4.5383     4.8935     0.1625     0.1545    -0.0078     3.3606           
  906   18.100   3382.27     4.7777     4.4997     4.8553     0.1610     0.2066     0.0008     3.3608           
  907   18.120   3383.43     4.9237     4.6677     5.0236     0.1574     0.2525     0.0121     3.2747           
  908   18.140   3384.54     5.6993     5.4482     5.8045     0.1499     0.2364     0.0127     2.7398           
  909   18.160   3385.65     6.2215     5.9441     6.3008     0.1494     0.1624     0.0012     2.4588           
  910   18.180   3386.68     6.2817     5.9749     6.3320     0.1460     0.0998    -0.0104     2.3225           
  911   18.200   3387.72     6.0943     5.7685     6.1259     0.1439     0.0682    -0.0185     2.3337           
  912   18.220   3388.76     5.6233     5.2963     5.6541     0.1425     0.0846    -0.0205     2.4802           
  913   18.240   3389.76     5.0150     4.7010     5.0592     0.1420     0.1196    -0.0164     2.7758           
  914   18.260   3390.82     4.6039     4.3041     4.6627     0.1503     0.1460    -0.0099     3.2312           
  915   18.280   3391.93     4.4633     4.1676     4.5266     0.1628     0.1580    -0.0077     3.6498           
  916   18.300   3393.00     4.6327     4.3403     4.6997     0.1740     0.1582    -0.0054     3.7975           
  917   18.320   3394.13     4.8042     4.5142     4.8739     0.1847     0.1688    -0.0038     3.8788           
  918   18.340   3395.17     4.9634     4.6726     5.0327     0.1896     0.1617    -0.0039     3.8625           
  919   18.360   3396.22     5.1110     4.8174     5.1779     0.1994     0.1613    -0.0051     3.9079           
  920   18.380   3397.22     5.0851     4.7972     5.1581     0.2067     0.1844    -0.0021     4.0547           
  921   18.400   3398.32     5.0158     4.7372     5.0985     0.2125     0.2029     0.0027     4.2329           
  922   18.420   3399.38     5.0143     4.7446     5.1062     0.2188     0.2287     0.0073     4.3636           
  923   18.440   3400.43     5.0765     4.8149     5.1770     0.2265     0.2461     0.0114     4.4794           
  924   18.460   3401.50     5.2336     4.9854     5.3478     0.2201     0.2959     0.0175     4.2391           
  925   18.480   3402.65     5.7034     5.4871     5.8498     0.2156     0.3907     0.0297     3.9397           
  926   18.500   3403.76     9.7637     9.6284     9.9915     0.1832     0.6447     0.0370     2.3137           
  927   18.520   3404.82    18.1802    18.1004    18.4640     0.1630     0.6539     0.0274     1.0331           
  928   18.540   3405.88    26.6330    26.4582    26.8222     0.1511     0.3564     0.0100     0.5912           
  929   18.560   3406.88    30.9664    30.6822    31.0465     0.1517     0.1836     0.0002     0.4939           
  930   18.580   3407.93    33.1524    32.8642    33.2289     0.1618     0.1856    -0.0001     0.5004           
  931   18.600   3409.04    34.5695    34.2682    34.6332     0.1820     0.1732    -0.0010     0.5281           
  932   18.620   3410.15    35.0593    34.7649    35.1304     0.2074     0.1655    -0.0005     0.5934           
  933   18.640   3411.26    36.0454    35.7385    36.1044     0.2382     0.1063    -0.0013     0.6634           
  934   18.660   3412.38    37.5280    37.1849    37.5511     0.2596     0.0245    -0.0035     0.6973           
  935   18.680   3413.44    39.6517    39.2837    39.6503     0.2788    -0.0213    -0.0048     0.7077           
  936   18.700   3414.52    41.8886    41.4951    41.8620     0.2695    -0.0752    -0.0060     0.6486           
  937   18.720   3415.54    44.1331    43.7331    44.1004     0.2507    -0.0826    -0.0061     0.5811           
  938   18.740   3416.69    46.1779    45.7684    46.1362     0.2623    -0.1005    -0.0063     0.5734           
  939   18.760   3417.76    47.7732    47.3659    47.7339     0.2769    -0.0940    -0.0059     0.5836           
  940   18.780   3418.88    48.5286    48.1188    48.4873     0.3025    -0.0956    -0.0059     0.6236           
  941   18.800   3420.02    48.2692    47.8586    48.2274     0.3361    -0.0913    -0.0060     0.6955           
  942   18.820   3421.15    47.5703    47.1722    47.5414     0.3580    -0.0669    -0.0054     0.7511           
  943   18.840   3422.26    47.3271    46.9328    47.3024     0.3770    -0.0523    -0.0053     0.7964           
  944   18.860   3423.32    47.3163    46.9282    47.2982     0.3873    -0.0493    -0.0049     0.8185           
  945   18.880   3424.38    47.3224    46.9236    47.2940     0.3822    -0.0759    -0.0055     0.8070           
  946   18.900   3425.49    47.7146    47.3102    47.6809     0.3662    -0.0820    -0.0057     0.7714           
  947   18.920   3426.54    48.4682    48.0591    48.4302     0.3501    -0.0913    -0.0058     0.7287           
  948   18.940   3427.65    49.5698    49.1610    49.5325     0.3227    -0.0883    -0.0057     0.6517           
  949   18.960   3428.76    49.8520    49.4431    49.8150     0.3050    -0.0865    -0.0056     0.6121           
  950   18.980   3429.97    50.0326    49.6299    50.0021     0.2947    -0.0739    -0.0053     0.5885           
  951   19.000   3431.04    49.8169    49.4137    49.7863     0.2826    -0.0708    -0.0053     0.5676           
  952   19.020   3432.13    50.0866    49.6877    50.0607     0.2909    -0.0520    -0.0051     0.5814           
  953   19.040   3433.17    50.4295    50.0403    50.4137     0.2819    -0.0350    -0.0046     0.5590           
  954   19.060   3434.22    50.6143    50.2324    50.6062     0.2713    -0.0119    -0.0042     0.5373           
  955   19.080   3435.32    51.0356    50.6573    51.0315     0.2717    -0.0190    -0.0040     0.5346           
  956   19.100   3436.43    52.5228    52.1346    52.5091     0.2642    -0.0261    -0.0043     0.5099           
  957   19.120   3437.54    53.7754    53.3924    53.7674     0.2553    -0.0137    -0.0039     0.4754           
  958   19.140   3438.71    54.6204    54.2308    54.6061     0.2574    -0.0346    -0.0042     0.4719           
  959   19.160   3439.82    54.7905    54.4044    54.7801     0.2678    -0.0258    -0.0040     0.4884           
  960   19.180   3440.88    54.5454    54.1543    54.5304     0.2826    -0.0323    -0.0042     0.5181           
  961   19.200   3441.99    54.1188    53.7311    54.1075     0.3007    -0.0163    -0.0041     0.5555           
  962   19.220   3443.04    53.9940    53.6075    53.9843     0.3240    -0.0181    -0.0040     0.5982           
  963   19.240   3444.13    53.4349    53.0551    53.4323     0.3385    -0.0024    -0.0037     0.6302           
  964   19.260   3445.23    52.8293    52.4504    52.8280     0.3515    -0.0038    -0.0037     0.6634           
  965   19.280   3446.38    52.7618    52.3844    52.7624     0.3663     0.0017    -0.0037     0.6944           
  966   19.300   3447.50    52.5962    52.2199    52.5982     0.3868     0.0239    -0.0036     0.7348           
  967   19.320   3448.63    52.2108    51.8421    52.2209     0.4024     0.0189    -0.0033     0.7692           
  968   19.340   3449.71    51.6857    51.3138    51.6929     0.3986     0.0164    -0.0034     0.7702           
  969   19.360   3450.77    51.1123    50.7417    51.1212     0.3912     0.0209    -0.0034     0.7644           
  970   19.380   3451.88    50.3645    49.9950    50.3749     0.3886     0.0242    -0.0034     0.7672           
  971   19.400   3452.93    50.4133    50.0475    50.4277     0.3903     0.0335    -0.0032     0.7779           
  972   19.420   3454.02    50.5130    50.1478    50.5284     0.3751     0.0241    -0.0031     0.7421           
  973   19.440   3455.15    49.9579    49.5897    49.9707     0.3541     0.0349    -0.0033     0.7082           
  974   19.460   3456.22    49.1241    48.7441    49.1255     0.3381    -0.0055    -0.0039     0.6868           
  975   19.480   3457.43    48.8308    48.4570    48.8387     0.3326     0.0519    -0.0036     0.6813           
  976   19.500   3458.54    48.6957    48.3285    48.7107     0.3215     0.0371    -0.0033     0.6586           
  977   19.520   3459.65    48.1144    47.7493    48.1318     0.3237     0.0455    -0.0032     0.6698           
  978   19.540   3460.65    47.1856    46.8238    47.2067     0.3347     0.0501    -0.0031     0.7075           
  979   19.560   3461.71    46.5603    46.1884    46.5716     0.3459     0.0557    -0.0037     0.7419           
  980   19.580   3462.81    46.3008    45.9503    46.3340     0.3316     0.0686    -0.0025     0.7155           
  981   19.600   3463.88    45.0147    44.6687    45.0527     0.3256     0.1079    -0.0024     0.7208           
  982   19.620   3464.94    44.1507    43.8075    44.1920     0.3366     0.0898    -0.0022     0.7615           
  983   19.640   3466.13    42.9438    42.5761    42.9609     0.3302     0.0243    -0.0037     0.7645           
  984   19.660   3467.31    41.4945    41.1168    41.5020     0.3276     0.0055    -0.0043     0.7825           
  985   19.680   3468.32    39.9721    39.5865    39.9721     0.3235     0.0010    -0.0050     0.8025           
  986   19.700   3469.38    38.2095    37.8206    38.2066     0.3210    -0.0034    -0.0054     0.8354           
  987   19.720   3470.43    36.6010    36.2085    36.5948     0.3151    -0.0259    -0.0059     0.8581           
  988   19.740   3471.49    34.7460    34.3444    34.7311     0.3061    -0.0361    -0.0068     0.8753           
  989   19.760   3472.60    32.6627    32.2577    32.6448     0.2898    -0.0460    -0.0074     0.8775           
  990   19.780   3473.71    30.4631    30.0522    30.4397     0.2719    -0.0546    -0.0084     0.8793           
  991   19.800   3474.81    28.4622    28.0520    28.4399     0.2626    -0.0498    -0.0090     0.9097           
  992   19.820   3475.88    26.8846    26.4746    26.8628     0.2639    -0.0503    -0.0094     0.9659           
  993   19.840   3476.97    25.0992    24.6913    25.0799     0.2851    -0.0495    -0.0099     1.1118           
  994   19.860   3478.02    22.9360    22.5222    22.9112     0.3119    -0.0611    -0.0115     1.3291           
  995   19.880   3479.07    20.1333    19.7201    20.1095     0.3285    -0.0571    -0.0130     1.5975           
  996   19.900   3480.15    17.1971    16.7901    17.1799     0.3186    -0.0269    -0.0143     1.8014           
  997   19.920   3481.17    14.7872    14.4029    14.7931     0.3278     0.0430    -0.0128     2.1721           
  998   19.940   3482.22    13.2915    12.9492    13.3397     0.3321     0.1459    -0.0065     2.4547           
  999   19.960   3483.32    11.8265    11.5132    11.9040     0.3057     0.2088    -0.0013     2.4907           
 1000   19.980   3484.49    10.3185    10.0446    10.4359     0.2872     0.2651     0.0079     2.6637           
 1001   20.000   3485.54     9.4975     9.2458     9.6374     0.2879     0.3966     0.0144     2.9665           
 1002   20.020   3486.60     8.9075     8.7478     9.1399     0.2770     0.6456     0.0404     3.0613           
 1003   20.040   3487.63     8.9935     8.8812     9.2736     0.2469     0.6249     0.0525     2.7319           
 1004   20.060   3488.63     8.7568     8.5995     8.9923     0.2303     0.5515     0.0419     2.6264           
 1005   20.080   3489.65     8.9426     8.8106     9.2038     0.2290     0.6808     0.0478     2.5704           
 1006   20.100   3490.73     9.7602     9.6928    10.0864     0.2317     0.7995     0.0594     2.4228           
 1007   20.120   3491.88    10.9339    10.8547    11.2487     0.2512     0.6214     0.0505     2.3481           
 1008   20.140   3492.97    11.5227    11.2490    11.6433     0.2760     0.1705     0.0077     2.4328           
 1009   20.160   3494.10    11.4409    11.1012    11.4959     0.2987     0.1599    -0.0063     2.5686           
 1010   20.180   3495.10    10.6394    10.3324    10.7275     0.2699     0.2481     0.0008     2.4829           
 1011   20.200   3496.15     9.7523     9.4681     9.8636     0.2521     0.2865     0.0067     2.5483           
 1012   20.220   3497.17     9.7026     9.4671     9.8629     0.2259     0.4764     0.0188     2.3650           
 1013   20.240   3498.22    12.1413    12.0508    12.4470     0.2440     0.8222     0.0434     2.0486           
 1014   20.260   3499.32    15.1086    15.1753    15.5719     0.3234     0.9855     0.0592     2.1878           
 1015   20.280   3500.43    16.7095    16.5074    16.9043     0.3916     0.2325     0.0159     2.3745           
 1016   20.300   3501.54    17.1508    16.7964    17.1937     0.3734     0.0866    -0.0060     2.1653           
 1017   20.320   3502.65    15.9847    15.6258    16.0236     0.3464     0.1101    -0.0071     2.1279           
 1018   20.340   3503.71    14.6772    14.3535    14.7516     0.3437     0.2452    -0.0018     2.3069           
 1019   20.360   3504.77    13.8225    13.6086    14.0071     0.3513     0.6216     0.0174     2.5344           
 1020   20.380   3505.88    14.8347    14.7961    15.1950     0.3661     1.0678     0.0442     2.6234           
 1021   20.400   3506.93    19.1558    19.3041    19.7033     0.3493     1.1218     0.0572     1.9868           
 1022   20.420   3508.02    26.8070    26.6345    27.0342     0.3167     0.3574     0.0130     1.3532           
 1023   20.440   3509.10    34.7730    34.4463    34.8463     0.3112     0.1170    -0.0008     0.9722           
 1024   20.460   3510.21    40.0922    39.7598    40.1602     0.3235     0.2350    -0.0011     0.8485           
 1025   20.480   3511.38    44.2837    43.9662    44.3669     0.3343     0.1590    -0.0002     0.7613           
 1026   20.500   3512.59    45.8338    45.4479    45.8491     0.3499     0.0078    -0.0037     0.7644           
 1027   20.520   3513.73    45.1842    44.7754    45.1769     0.3752    -0.0225    -0.0050     0.8250           
 1028   20.540   3514.81    44.8196    44.4055    44.8074     0.4118    -0.0337    -0.0053     0.9191           
 1029   20.560   3515.88    44.5304    44.1120    44.5143     0.4434    -0.0415    -0.0055     0.9942           
 1030   20.580   3516.88    44.4396    44.0160    44.4186     0.4522    -0.0505    -0.0058     1.0176           
 1031   20.600   3517.83    44.6833    44.2598    44.6629     0.4441    -0.0447    -0.0058     0.9945           
 1032   20.620   3518.93    44.7109    44.2924    44.6958     0.4283    -0.0317    -0.0055     0.9571           
 1033   20.640   3520.10    43.9209    43.5033    43.9071     0.4102    -0.0399    -0.0055     0.9287           
 1034   20.660   3521.25    41.8221    41.3940    41.7982     0.3875    -0.0644    -0.0064     0.9106           
 1035   20.680   3522.32    38.4740    38.0370    38.4415     0.3449    -0.0859    -0.0075     0.8755           
 1036   20.700   3523.32    34.8432    34.3934    34.7983     0.3055    -0.1160    -0.0091     0.8652           
 1037   20.720   3524.38    31.2320    30.7769    31.1822     0.2997    -0.1169    -0.0106     0.9479           
 1038   20.740   3525.43    29.0563    28.6025    29.0082     0.3172    -0.1153    -0.0113     1.0873           
 1039   20.760   3526.50    27.0717    26.6153    27.0214     0.3569    -0.1254    -0.0123     1.3046           
 1040   20.780   3527.60    24.2322    23.7707    24.1772     0.3981    -0.1353    -0.0143     1.6071           
 1041   20.800   3528.75    20.7306    20.2674    20.6742     0.4191    -0.1352    -0.0169     1.9497           
 1042   20.820   3529.82    18.1125    17.6479    18.0551     0.4428    -0.1374    -0.0195     2.3768           
 1043   20.840   3530.93    16.1942    15.7331    16.1407     0.4778    -0.1143    -0.0213     2.8618           
 1044   20.860   3531.97    14.5811    14.1394    14.5474     0.5037    -0.0606    -0.0204     3.3765           
 1045   20.880   3533.02    12.9063    12.4899    12.8983     0.5107     0.0092    -0.0182     3.8955           
 1046   20.900   3534.07    11.9449    11.5473    11.9560     0.4768     0.0163    -0.0158     3.9741           
 1047   20.920   3535.15    11.5130    11.1145    11.5237     0.4997     0.0310    -0.0165     4.3282           
 1048   20.940   3536.21    11.4844    11.0929    11.5024     0.4663     0.0512    -0.0150     4.0857           
 1049   20.960   3537.31    12.2634    11.8873    12.2972     0.4008     0.0982    -0.0109     3.3169           
 1050   20.980   3538.47    15.0045    14.6477    15.0580     0.3385     0.1131    -0.0056     2.4446           
 1051   21.000   3539.54    20.2876    19.8705    20.2811     0.2893    -0.0128    -0.0114     1.5528           
 1052   21.020   3540.63    26.9298    26.5097    26.9207     0.2453    -0.0271    -0.0088     0.9665           
 1053   21.040   3541.67    31.9241    31.4881    31.8995     0.2069    -0.0682    -0.0085     0.6585           
 1054   21.060   3542.71    33.7430    33.2967    33.7084     0.1853    -0.0905    -0.0088     0.5505           
 1055   21.080   3543.76    33.1645    32.7077    33.1199     0.1867    -0.1081    -0.0097     0.5608           
 1056   21.100   3544.88    31.5111    31.0545    31.4670     0.2183    -0.1017    -0.0102     0.6835           
 1057   21.120   3545.97    29.0535    28.5965    29.0094     0.2689    -0.1056    -0.0111     0.9055           
 1058   21.140   3547.10    26.3595    25.8991    26.3124     0.3444    -0.1178    -0.0125     1.2672           
 1059   21.160   3548.17    23.4915    23.0236    23.4373     0.4370    -0.1339    -0.0148     1.7934           
 1060   21.180   3549.23    20.0499    19.5762    19.9903     0.4549    -0.1451    -0.0181     2.1699           
 1061   21.200   3550.24    16.4732    15.9963    16.4108     0.4212    -0.1492    -0.0226     2.4830           
 1062   21.220   3551.26    13.5632    13.0877    13.5025     0.3761    -0.1288    -0.0273     2.7420           
 1063   21.240   3552.32    11.8517    11.4198    11.8350     0.3444     0.0489    -0.0221     2.7551           
 1064   21.260   3553.43    10.1969     9.8605    10.2761     0.3109     0.2663    -0.0024     3.0442           
 1065   21.280   3554.54    11.7171    11.5387    11.9547     0.2825     0.7223     0.0301     2.5339           
 1066   21.300   3555.63    16.0543    15.9704    16.3867     0.2390     0.6443     0.0370     1.5823           
 1067   21.320   3556.76    23.6044    23.3491    23.7658     0.1811     0.2496     0.0076     0.8264           
 1068   21.340   3557.88    30.2372    29.8475    30.2646     0.1599     0.0277    -0.0050     0.5537           
 1069   21.360   3558.93    34.2194    33.7980    34.2155     0.1710    -0.0094    -0.0066     0.5081           
 1070   21.380   3559.97    36.8992    36.4716    36.8895     0.1663    -0.0345    -0.0065     0.4653           
 1071   21.400   3561.04    38.2795    37.8392    38.2575     0.1813    -0.0584    -0.0070     0.4791           
 1072   21.420   3562.13    38.6618    38.2149    38.6335     0.1986    -0.0762    -0.0074     0.5150           
 1073   21.440   3563.21    38.6076    38.1509    38.5699     0.2140    -0.0938    -0.0080     0.5542           
 1074   21.460   3564.32    38.3561    37.8950    38.3144     0.2295    -0.1048    -0.0083     0.5975           
 1075   21.480   3565.50    37.8978    37.4314    37.8511     0.2481    -0.1090    -0.0087     0.6537           
 1076   21.500   3566.65    37.3645    36.8996    37.3197     0.2667    -0.1109    -0.0087     0.7091           
 1077   21.520   3567.71    36.1103    35.6372    36.0577     0.2780    -0.1280    -0.0096     0.7614           
 1078   21.540   3568.67    34.6302    34.1558    34.5767     0.2889    -0.1265    -0.0100     0.8312           
 1079   21.560   3569.76    32.7387    32.2640    32.6853     0.2915    -0.1273    -0.0106     0.8858           
 1080   21.580   3570.82    30.9150    30.4385    30.8602     0.2861    -0.1301    -0.0114     0.9178           
 1081   21.600   3571.88    29.2729    28.7960    29.2181     0.2747    -0.1320    -0.0120     0.9309           
 1082   21.620   3573.02    27.6446    27.1669    27.5893     0.2636    -0.1308    -0.0128     0.9414           
 1083   21.640   3574.15    26.1976    25.7205    26.1433     0.2526    -0.1285    -0.0134     0.9486           
 1084   21.660   3575.26    24.6186    24.1423    24.5655     0.2621    -0.1256    -0.0142     1.0393           
 1085   21.680   3576.27    22.6966    22.2199    22.6435     0.3018    -0.1269    -0.0155     1.2940           
 1086   21.700   3577.32    19.6483    19.1709    19.5948     0.3524    -0.1265    -0.0180     1.7318           
 1087   21.720   3578.32    16.1299    15.6509    16.0752     0.3605    -0.1303    -0.0222     2.1644           
 1088   21.740   3579.43    12.8224    12.3445    12.7693     0.3462    -0.1209    -0.0279     2.6106           
 1089   21.760   3580.43    10.9821    10.5143    10.9394     0.3158    -0.0838    -0.0304     2.8080           
 1090   21.780   3581.54     9.4665     9.0252     9.4507     0.2914    -0.0026    -0.0283     2.9987           
 1091   21.800   3582.65     8.0358     7.6336     8.0595     0.2475     0.0848    -0.0211     2.9306           
 1092   21.820   3583.76     6.6454     6.2878     6.7141     0.2083     0.2027    -0.0086     2.9720           
 1093   21.840   3584.82     6.0266     5.7144     6.1410     0.1819     0.3384     0.0095     2.9590           
 1094   21.860   3585.88     5.7228     5.4767     5.9037     0.1440     0.4926     0.0387     2.4882           
 1095   21.880   3586.88     5.6546     5.4666     5.8940     0.1167     0.6048     0.0642     2.0650           
 1096   21.900   3587.97     5.5817     5.4273     5.8551     0.1025     0.6880     0.0796     1.8250           
 1097   21.920   3588.99     5.1278     5.0365     5.4647     0.1027     0.8844     0.1159     1.9695           
 1098   21.940   3590.10     4.6331     4.6699     5.0984     0.1050     1.1968     0.1905     2.2238           
 1099   21.960   3591.15     4.4430     4.5613     4.9902     0.1043     1.3385     0.2375     2.3408           
 1100   21.980   3592.27     4.4995     4.6314     5.0607     0.1008     1.3403     0.2411     2.2640           
 1101   22.000   3593.38     4.5981     4.7398     5.1694     0.1047     1.3832     0.2406     2.2831           
 1102   22.020   3594.43     4.7190     4.8908     5.3208     0.1116     1.4514     0.2480     2.3969           
 1103   22.040   3595.43     5.0528     5.2138     5.6442     0.1149     1.2804     0.2279     2.3080           
 1104   22.060   3596.43     5.2454     5.3080     5.7388     0.1194     1.1365     0.1798     2.2835           
 1105   22.080   3597.49     5.3020     5.3201     5.7513     0.1219     1.0596     0.1596     2.2941           
 1106   22.100   3598.54     5.1203     5.1454     5.5769     0.1281     1.1112     0.1683     2.4888           
 1107   22.120   3599.65     4.8874     4.9737     5.4056     0.1365     1.2722     0.2037     2.7540           
 1108   22.140   3600.76     4.7600     4.8840     5.3163     0.1460     1.3649     0.2259     3.0846           
 1109   22.160   3601.88     4.7562     4.9135     5.3461     0.1507     1.4138     0.2408     3.1586           
 1110   22.180   3602.93     4.8111     4.9842     5.4173     0.1457     1.4693     0.2450     3.0326           
 1111   22.200   3603.92     4.9291     5.1088     5.5422     0.1184     1.4806     0.2423     2.4054           
 1112   22.220   3604.97     4.7713     4.9663     5.4002     0.1041     1.5554     0.2567     2.1893           
 1113   22.240   3606.04     5.2923     5.5766     6.0108     0.1081     1.8267     0.2670     2.1492           
 1114   22.260   3607.15     8.0064     8.3993     8.8339     0.1379     1.9842     0.2119     1.8786           
 1115   22.280   3608.22    13.7031    14.1074    14.5424     0.1716     1.8020     0.1271     1.3668           
 1116   22.300   3609.38    18.7716    18.8256    19.2610     0.2054     0.6751     0.0500     1.1470           
 1117   22.320   3610.49    19.4336    19.1070    19.5427     0.2457     0.2136     0.0019     1.2572           
 1118   22.340   3611.60    18.0378    17.6895    18.1257     0.2861     0.2240    -0.0008     1.5433           
 1119   22.360   3612.60    17.4124    17.1003    17.5368     0.3394     0.3591     0.0042     1.9454           
 1120   22.380   3613.63    17.0543    16.7890    17.2259     0.3814     0.3860     0.0110     2.2163           
 1121   22.400   3614.71    14.9702    14.6520    15.0893     0.3796     0.1891     0.0039     2.4415           
 1122   22.420   3615.72    12.7336    12.3113    12.7490     0.3697     0.0174    -0.0154     2.8161           
 1123   22.440   3616.76    10.7042    10.2794    10.7174     0.3399     0.0649    -0.0188     3.0528           
 1124   22.460   3617.88     8.8383     8.4638     8.9022     0.2903     0.2202    -0.0086     3.1290           
 1125   22.480   3619.00     7.2546     6.9921     7.4308     0.2891     0.4789     0.0281     3.6976           
 1126   22.500   3620.07     6.4671     6.2664     6.7055     0.2720     0.6120     0.0547     4.1363           
 1127   22.520   3621.12     6.6740     6.5200     6.9595     0.2266     0.7026     0.0697     3.4698           
 1128   22.540   3622.15     7.0388     6.8937     7.3336     0.1968     0.6421     0.0691     2.8111           
 1129   22.560   3623.17     6.7958     6.5466     6.9869     0.1767     0.4214     0.0348     2.5616           
 1130   22.580   3624.19     5.8491     5.6091     6.0497     0.1744     0.5391     0.0452     2.9263           
 1131   22.600   3625.26     5.0112     4.9090     5.3501     0.1664     0.9351     0.1188     3.2470           
 1132   22.620   3626.38     4.7783     4.7835     5.2249     0.1539     1.1104     0.1750     3.2240           
 1133   22.640   3627.50     5.3011     5.3911     5.8329     0.1350     1.3580     0.1929     2.6554           
 1134   22.660   3628.60     7.2799     7.4240     7.8662     0.1292     1.3256     0.1591     1.9658           
 1135   22.680   3629.65    10.6611    10.6825    11.1251     0.1311     0.8902     0.0834     1.3315           
 1136   22.700   3630.67    14.2429    13.9582    14.4012     0.1283     0.1682     0.0115     0.9383           
 1137   22.720   3631.76    17.7565    17.3076    17.7509     0.1252    -0.0306    -0.0139     0.7224           
 1138   22.740   3632.82    21.0589    20.5970    21.0407     0.1157    -0.0543    -0.0132     0.5603           
 1139   22.760   3633.93    23.3226    22.8580    23.3021     0.1054    -0.0392    -0.0121     0.4565           
 1140   22.780   3635.02    23.7443    23.2897    23.7342     0.1411    -0.0150    -0.0108     0.5938           
 1141   22.800   3636.13    23.0213    22.5621    23.0070     0.2253    -0.0413    -0.0116     0.9653           
 1142   22.820   3637.21    20.9651    20.4933    20.9385     0.2925    -0.0791    -0.0142     1.3537           
 1143   22.840   3638.27    18.2615    17.7759    18.2215     0.3024    -0.0979    -0.0182     1.5978           
 1144   22.860   3639.38    15.4076    14.9161    15.3621     0.3169    -0.1043    -0.0226     1.9714           
 1145   22.880   3640.38    13.7093    13.2263    13.6727     0.3265    -0.0450    -0.0239     2.3511           
 1146   22.900   3641.43    12.6345    12.2355    12.6822     0.3249     0.1989    -0.0094     2.5627           
 1147   22.920   3642.49    12.7871    12.4682    12.9153     0.3105     0.4410     0.0060     2.4549           
 1148   22.940   3643.60    14.6081    14.3329    14.7804     0.2988     0.3299     0.0127     2.0970           
 1149   22.960   3644.65    16.5416    16.1466    16.5945     0.2702     0.0329    -0.0063     1.6738           
 1150   22.980   3645.81    18.0119    17.5405    17.9888     0.2485    -0.0630    -0.0162     1.4012           
 1151   23.000   3646.93    18.7952    18.3184    18.7671     0.2406    -0.0697    -0.0162     1.2947           
 1152   23.020   3647.97    19.9331    19.4478    19.8969     0.2431    -0.0907    -0.0163     1.2350           
 1153   23.040   3648.99    21.2040    20.7134    21.1629     0.2492    -0.1017    -0.0159     1.1841           
 1154   23.060   3650.06    22.5922    22.0900    22.5398     0.2421    -0.1311    -0.0161     1.0822           
 1155   23.080   3651.10    23.8676    23.3575    23.8076     0.2238    -0.1484    -0.0160     0.9411           
 1156   23.100   3652.21    25.1086    24.5914    25.0420     0.2008    -0.1651    -0.0158     0.8049           
 1157   23.120   3653.32    26.5625    26.0392    26.4901     0.1745    -0.1740    -0.0155     0.6647           
 1158   23.140   3654.43    28.1414    27.6151    28.0664     0.1617    -0.1803    -0.0148     0.5806           
 1159   23.160   3655.54    29.5023    28.9756    29.4273     0.1533    -0.1788    -0.0142     0.5245           
 1160   23.180   3656.63    30.0841    29.5547    30.0067     0.1545    -0.1875    -0.0141     0.5130           
 1161   23.200   3657.67    29.3824    28.8494    29.3019     0.1674    -0.1933    -0.0147     0.5668           
 1162   23.220   3658.71    27.9052    27.3691    27.8219     0.1833    -0.2014    -0.0157     0.6523           
 1163   23.240   3659.81    25.5975    25.0574    25.5106     0.2262    -0.2079    -0.0175     0.8743           
 1164   23.260   3660.88    23.1059    22.5650    23.0186     0.2708    -0.2084    -0.0195     1.1508           
 1165   23.280   3661.97    19.7783    19.2368    19.6907     0.2967    -0.2075    -0.0230     1.4520           
 1166   23.300   3663.06    16.4186    15.8768    16.3312     0.3037    -0.2074    -0.0278     1.7665           
 1167   23.320   3664.17    13.4248    12.8849    13.3396     0.2872    -0.1993    -0.0339     2.0290           
 1168   23.340   3665.26    11.3558    10.8234    11.2785     0.2612    -0.1755    -0.0386     2.1913           
 1169   23.360   3666.27     9.5812     9.0590     9.5145     0.2354    -0.1472    -0.0434     2.3544           
 1170   23.380   3667.32     7.4084     6.9011     7.3570     0.2242    -0.1051    -0.0517     2.8867           
 1171   23.400   3668.38     5.8148     5.3296     5.7858     0.1821    -0.0364    -0.0568     3.0283           
 1172   23.420   3669.43     5.0684     4.6226     5.0792     0.1450     0.0627    -0.0451     2.8049           
 1173   23.440   3670.49     4.8917     4.4997     4.9567     0.1161     0.2003    -0.0177     2.3728           
 1174   23.460   3671.56     5.0528     4.7377     5.1951     0.1077     0.4249     0.0219     2.1451           
 1175   23.480   3672.71     5.3057     5.0815     5.5393     0.1023     0.6014     0.0632     1.9646           
 1176   23.500   3673.82     5.1432     4.9585     5.4166     0.0962     0.6918     0.0839     1.8282           
 1177   23.520   3674.82     4.8336     4.7107     5.1692     0.0936     0.8358     0.1198     1.9026           
 1178   23.540   3675.93     4.6348     4.5939     5.0528     0.0992     1.0699     0.1655     2.1198           
 1179   23.560   3676.97     4.4158     4.4335     4.8928     0.1016     1.1942     0.2030     2.2966           
 1180   23.580   3677.93     4.4349     4.5198     4.9795     0.1057     1.3185     0.2347     2.3865           
 1181   23.600   3678.99     4.6137     4.7218     5.1819     0.1116     1.3455     0.2366     2.4409           
 1182   23.620   3680.10     4.8384     4.9486     5.4090     0.1081     1.3540     0.2268     2.2468           
 1183   23.640   3681.26     5.0662     5.1629     5.6237     0.1125     1.3304     0.2114     2.2661           
 1184   23.660   3682.38     5.3687     5.4724     5.9335     0.1092     1.3710     0.2025     2.0771           
 1185   23.680   3683.43     5.4737     5.5852     6.0467     0.1115     1.3706     0.2019     2.0505           
 1186   23.700   3684.42     5.5082     5.6331     6.0950     0.1086     1.3990     0.2060     1.9621           
 1187   23.720   3685.47     5.3295     5.3850     5.8474     0.1063     1.1237     0.1848     1.9792           
 1188   23.740   3686.43     4.8830     4.9145     5.3772     0.1124     1.1397     0.1912     2.2676           
 1189   23.760   3687.54     4.3567     4.4282     4.8913     0.1129     1.3712     0.2338     2.5784           
 1190   23.780   3688.60     4.2929     4.4749     4.9384     0.1164     1.6206     0.2903     2.7012           
 1191   23.800   3689.71     4.2660     4.4838     4.9476     0.1116     1.6092     0.3089     2.6210           
 1192   23.820   3690.82     4.2817     4.4965     4.9607     0.1007     1.6289     0.3066     2.3434           
 1193   23.840   3691.93     4.1482     4.3934     4.8580     0.0982     1.7487     0.3304     2.3392           
 1194   23.860   3692.93     4.0575     4.3350     4.8000     0.1045     1.7500     0.3528     2.5689           
 1195   23.880   3693.97     4.1340     4.4104     4.8758     0.1054     1.7923     0.3463     2.5552           
 1196   23.900   3695.04     4.2214     4.5131     4.9788     0.1023     1.8208     0.3466     2.4379           
 1197   23.920   3696.07     4.3560     4.6404     5.1065     0.0980     1.7298     0.3336     2.2605           
 1198   23.940   3697.15     4.3264     4.5317     4.9982     0.0942     1.6234     0.3002     2.1426           
 1199   23.960   3698.19     4.0530     4.3362     4.8031     0.0808     1.8606     0.3567     1.9712           
 1200   23.980   3699.38     4.1360     4.5046     4.9719     0.0831     2.0661     0.3886     2.0473           
 1201   24.000   3700.43     5.0172     5.4356     5.9033     0.0914     2.0687     0.3451     1.9837           
 1202   24.020   3701.52     7.7851     8.1099     8.5780     0.0860     1.7273     0.2055     1.2752           
 1203   24.040   3702.52    11.2211    11.3330    11.8014     0.0874     1.1776     0.1018     0.8353           
 1204   24.060   3703.54    14.7325    14.5307    14.9995     0.1055     0.4340     0.0276     0.7340           
 1205   24.080   3704.60    16.9881    16.6165    17.0856     0.1345     0.1820    -0.0005     0.8018           
 1206   24.100   3705.71    17.6462    17.2453    17.7148     0.1848     0.1529    -0.0045     1.0493           
 1207   24.120   3706.76    17.2350    16.8165    17.2864     0.2394     0.0952    -0.0071     1.3764           
 1208   24.140   3707.92    15.2129    14.7517    15.2220     0.2940     0.0078    -0.0149     1.8625           
 1209   24.160   3709.02    12.7958    12.3180    12.7887     0.3072    -0.0293    -0.0210     2.2731           
 1210   24.180   3710.06    10.6928    10.2160    10.6871     0.2860     0.0122    -0.0250     2.5637           
 1211   24.200   3711.07     8.7823     8.3612     8.8326     0.2691     0.1990    -0.0143     2.9699           
 1212   24.220   3712.13     7.0656     6.6963     7.1681     0.2368     0.2663     0.0004     3.2874           
 1213   24.240   3713.21     5.6978     5.3782     5.8504     0.2212     0.4497     0.0229     3.7824           
 1214   24.260   3714.27     5.2183     5.0121     5.4847     0.1957     0.7142     0.0782     3.7301           
 1215   24.280   3715.38     5.3161     5.1821     5.6551     0.1564     0.9020     0.1089     2.9662           
 1216   24.300   3716.44     5.2403     5.1110     5.5843     0.1357     0.8825     0.1127     2.5738           
 1217   24.320   3717.60     4.9078     4.7923     5.2661     0.1289     0.8372     0.1272     2.5433           
 1218   24.340   3718.65     4.5558     4.4523     4.9264     0.1174     0.9768     0.1437     2.5157           
 1219   24.360   3719.71     4.1825     4.2001     4.6746     0.1075     1.2348     0.2211     2.5144           
 1220   24.380   3720.71     3.9601     4.0415     4.5164     0.1100     1.3845     0.2674     2.7584           
 1221   24.400   3721.77     4.0133     4.1536     4.6289     0.1213     1.4862     0.2941     3.0410           
 1222   24.420   3722.82     4.3229     4.4837     4.9593     0.1169     1.4952     0.2835     2.7423           
 1223   24.440   3723.88     4.6813     4.7823     5.2583     0.1115     1.3583     0.2361     2.4335           
 1224   24.460   3724.93     4.8422     4.9032     5.3796     0.1169     1.2578     0.2111     2.4151           
 1225   24.480   3726.10     4.5670     4.6505     5.1273     0.1210     1.3822     0.2343     2.5920           
 1226   24.500   3727.21     4.3600     4.5064     4.9835     0.1072     1.5447     0.2750     2.4535           
 1227   24.520   3728.24     4.3596     4.5431     5.0207     0.1163     1.5724     0.2925     2.6702           
 1228   24.540   3729.22     4.4770     4.6805     5.1584     0.1318     1.6677     0.2941     2.9756           
 1229   24.560   3730.24     4.8834     5.1188     5.5971     0.1310     1.6625     0.2841     2.7193           
 1230   24.580   3731.32     5.4681     5.6602     6.1389     0.1509     1.5541     0.2388     2.8032           
 1231   24.600   3732.38     6.1256     6.2100     6.6891     0.1393     1.3189     0.1764     2.3294           
 1232   24.620   3733.49     6.7452     6.7705     7.2500     0.1655     1.2304     0.1412     2.4908           
 1233   24.640   3734.60     7.7977     7.8538     8.3336     0.1783     1.2923     0.1311     2.3711           
 1234   24.660   3735.71     8.8371     8.8562     9.3364     0.1737     1.1398     0.1065     2.0079           
 1235   24.680   3736.75    10.6098    10.5165    10.9970     0.1594     0.7672     0.0647     1.5767           
 1236   24.700   3737.82    12.2905    12.0162    12.4972     0.1934     0.3862     0.0205     1.5977           
 1237   24.720   3738.82    13.7682    13.3780    13.8594     0.2279     0.1086    -0.0022     1.6788           
 1238   24.740   3739.97    13.1467    12.6521    13.1338     0.2384    -0.0375    -0.0220     1.7700           
 1239   24.760   3741.04    10.5441    10.0493    10.5314     0.2246    -0.0325    -0.0277     1.9990           
 1240   24.780   3742.12     8.3129     7.8238     8.3063     0.2129     0.0180    -0.0337     2.4291           
 1241   24.800   3743.21     6.6742     6.2504     6.7332     0.2050     0.1938    -0.0169     2.8540           
 1242   24.820   3744.27     5.3496     4.9892     5.4725     0.1907     0.3853     0.0092     3.3476           
 1243   24.840   3745.38     4.7758     4.5133     4.9969     0.1565     0.5860     0.0616     3.2057           
 1244   24.860   3746.38     4.6332     4.4613     4.9453     0.1181     0.7782     0.1108     2.5261           
 1245   24.880   3747.38     4.5098     4.3999     4.8843     0.1030     0.9632     0.1461     2.2775           
 1246   24.900   3748.47     4.3244     4.2767     4.7614     0.1033     1.0986     0.1851     2.3784           
 1247   24.920   3749.52     4.2563     4.2629     4.7480     0.1055     1.1715     0.2162     2.4800           
 1248   24.940   3750.60     4.2018     4.2245     4.7100     0.1053     1.2044     0.2274     2.4930           
 1249   24.960   3751.67     4.1585     4.1967     4.6826     0.1069     1.2842     0.2379     2.5582           
 1250   24.980   3752.81     4.1961     4.2612     4.7474     0.1115     1.3197     0.2495     2.6673           
 1251   25.000   3753.93     4.2721     4.3402     4.8268     0.1135     1.3324     0.2467     2.6809           
 1252   25.020   3754.97     4.2204     4.3224     4.8094     0.1152     1.4347     0.2666     2.6946           
 1253   25.040   3755.92     4.1744     4.3077     4.7951     0.1208     1.5111     0.2849     2.8883           
 1254   25.060   3756.92     4.1240     4.2836     4.7714     0.1229     1.6018     0.3013     2.9788           
 1255   25.080   3758.02     4.2233     4.4295     4.9177     0.1181     1.6878     0.3166     2.8215           
 1256   25.100   3759.07     4.4894     4.7505     5.2390     0.1194     1.8163     0.3229     2.7079           
 1257   25.120   3760.12     4.9230     5.1996     5.6885     0.1340     1.8256     0.3024     2.7844           
 1258   25.140   3761.26     6.0750     6.3025     6.7918     0.1653     1.6924     0.2320     3.0037           
 1259   25.160   3762.38     7.7064     7.8003     8.2900     0.1926     1.1728     0.1459     2.6186           
 1260   25.180   3763.43     8.3283     8.1285     8.6186     0.2274     0.3720     0.0541     2.7788           
 1261   25.200   3764.42     8.3905     8.0292     8.5196     0.2407     0.2822     0.0069     2.8540           
 1262   25.220   3765.49     7.8592     7.4854     7.9762     0.2338     0.3230     0.0036     2.9409           
 1263   25.240   3766.52     7.1952     6.8657     7.3569     0.2436     0.4467     0.0194     3.3347           
 1264   25.260   3767.60     6.3157     6.0498     6.5414     0.2236     0.5895     0.0472     3.4774           
 1265   25.280   3768.71     5.9458     5.7538     6.2458     0.1938     0.7905     0.0802     3.2417           
 1266   25.300   3769.81     5.7346     5.6023     6.0947     0.1722     0.9130     0.1079     2.9761           
 1267   25.320   3770.93     5.0702     4.9764     5.4691     0.1441     0.9793     0.1400     2.7359           
 1268   25.340   3771.97     4.5934     4.5771     5.0702     0.1317     1.1523     0.1929     2.7869           
 1269   25.360   3773.02     4.3575     4.3716     4.8651     0.1476     1.2482     0.2185     3.3814           
 1270   25.380   3774.07     4.5240     4.5699     5.0637     0.1352     1.2736     0.2258     3.0259           
 1271   25.400   3775.15     4.8982     4.9319     5.4262     0.1330     1.2323     0.2035     2.7362           
 1272   25.420   3776.17     5.1474     5.1264     5.6210     0.1374     1.0569     0.1705     2.6935           
 1273   25.440   3777.26     5.2289     5.1560     5.6510     0.1327     1.0246     0.1456     2.5483           
 1274   25.460   3778.32     5.1581     5.1408     5.6361     0.1441     1.1926     0.1719     2.7794           
 1275   25.480   3779.49     5.2880     5.2993     5.7951     0.1469     1.1815     0.1798     2.8383           
 1276   25.500   3780.56     5.7539     5.7487     6.2448     0.1772     1.1628     0.1591     3.1710           
 1277   25.520   3781.62     6.2683     6.2506     6.7471     0.2160     1.1204     0.1416     3.5252           
 1278   25.540   3782.57     6.6975     6.6404     7.1373     0.2062     0.9793     0.1195     3.1295           
 1279   25.560   3783.63     7.1471     7.0209     7.5182     0.2089     0.8719     0.0895     2.9173           
 1280   25.580   3784.65     6.7304     6.5912     7.0888     0.1915     0.8997     0.0908     2.8176           
 1281   25.600   3785.76     5.9855     5.9103     6.4083     0.1653     1.2159     0.1271     2.7322           
 1282   25.620   3786.88     5.5485     5.7440     6.2424     0.1743     1.7348     0.2430     3.0783           
 1283   25.640   3787.94     6.7038     6.9784     7.4772     0.1891     1.8767     0.2275     3.0021           
 1284   25.660   3789.07     9.3320     9.5650    10.0642     0.2017     1.6447     0.1565     2.3476           
 1285   25.680   3790.15    12.2023    12.1325    12.6321     0.2482     0.5939     0.0643     2.1634           
 1286   25.700   3791.15    13.8700    13.4075    13.9074     0.3052     0.0453    -0.0125     2.2285           
 1287   25.720   3792.17    14.2797    13.7705    14.2709     0.3523    -0.0278    -0.0202     2.4677           
 1288   25.740   3793.26    14.0932    13.5915    14.0922     0.3554     0.0139    -0.0191     2.5162           
 1289   25.760   3794.32    14.0648    13.5779    14.0790     0.3577     0.0368    -0.0165     2.5462           
 1290   25.780   3795.43    14.3031    13.8241    14.3256     0.3865     0.0477    -0.0148     2.7092           
 1291   25.800   3796.54    14.4233    13.9243    14.4261     0.4105    -0.0317    -0.0181     2.8248           
 1292   25.820   3797.65    12.8179    12.2775    12.7797     0.3660    -0.1108    -0.0285     2.7341           
 1293   25.840   3798.75    10.6799    10.1328    10.6354     0.3196    -0.0921    -0.0360     2.8243           
 1294   25.860   3799.82     8.9721     8.4619     8.9649     0.2784     0.0220    -0.0325     2.9639           
 1295   25.880   3800.82     7.6506     7.1868     7.6902     0.2546     0.1461    -0.0228     3.2619           
 1296   25.900   3801.92     6.2607     5.8642     6.3679     0.2285     0.3716    -0.0005     3.5547           
 1297   25.920   3802.93     5.7483     5.4714     5.9755     0.1993     0.6010     0.0515     3.4416           
 1298   25.940   3804.02     5.5886     5.3948     5.8993     0.1718     0.8210     0.0891     3.0498           
 1299   25.960   3805.06     5.4860     5.3802     5.8851     0.1570     1.0145     0.1284     2.8459           
 1300   25.980   3806.22     5.4700     5.3949     5.9002     0.1415     1.0179     0.1417     2.6117           
 1301   26.000   3807.38     5.4595     5.3823     5.8880     0.1258     1.0199     0.1412     2.2671           
 1302   26.020   3808.42     5.4407     5.3873     5.8934     0.1248     1.1403     0.1518     2.2971           
 1303   26.040   3809.42     5.4296     5.4503     5.9568     0.1355     1.3119     0.1825     2.4877           
 1304   26.060   3810.42     5.2885     5.3583     5.8651     0.1333     1.3536     0.2076     2.5040           
 1305   26.080   3811.49     5.1588     5.1871     5.6943     0.1198     1.2396     0.1955     2.3128           
 1306   26.100   3812.54     4.9832     4.9738     5.4813     0.1077     1.1727     0.1860     2.1346           
 1307   26.120   3813.60     4.8042     4.7918     5.2997     0.1077     1.2048     0.1918     2.2215           
 1308   26.140   3814.71     4.7001     4.7291     5.2374     0.1138     1.3350     0.2153     2.4166           
 1309   26.160   3815.82     4.5802     4.6832     5.1919     0.1109     1.5091     0.2551     2.4123           
 1310   26.180   3816.88     4.5122     4.6549     5.1640     0.1160     1.5298     0.2771     2.5569           
 1311   26.200   3817.92     4.5608     4.7033     5.2127     0.1218     1.5847     0.2743     2.6753           
 1312   26.220   3818.92     4.6168     4.8084     5.3183     0.1350     1.7159     0.2928     2.9258           
 1313   26.240   3820.01     4.7203     4.9788     5.4891     0.1272     1.8674     0.3149     2.7036           
 1314   26.260   3821.04     4.9711     5.2921     5.8027     0.1233     2.0584     0.3245     2.5109           
 1315   26.280   3822.12     5.5143     5.9313     6.4422     0.1527     2.2939     0.3282     2.8310           
 1316   26.300   3823.26     6.7766     7.2900     7.8013     0.1848     2.4937     0.2989     2.8604           
 1317   26.320   3824.43     7.9520     8.5123     9.0241     0.2198     2.3554     0.2693     2.8913           
 1318   26.340   3825.49     9.7238     9.8178    10.3299     0.2538     0.5510     0.1202     2.7805           
 1319   26.360   3826.47    10.8493    10.4833    10.9958     0.2672     0.3726     0.0081     2.5324           
 1320   26.380   3827.50    12.6154    12.2449    12.7578     0.2769     0.3338     0.0062     2.2247           
 1321   26.400   3828.60    15.1038    14.6664    15.1798     0.2865     0.0589    -0.0054     1.9385           
 1322   26.420   3829.65    17.6857    17.1885    17.7023     0.2583     0.0097    -0.0131     1.4758           
 1323   26.440   3830.71    20.1780    19.6317    20.1459     0.2208    -0.0920    -0.0174     1.1082           
 1324   26.460   3831.82    22.3369    21.7778    22.2923     0.1880    -0.1006    -0.0170     0.8564           
 1325   26.480   3832.94    24.0220    23.4738    23.9888     0.1695    -0.0685    -0.0147     0.7174           
 1326   26.500   3834.07    25.6422    25.0986    25.6140     0.2002    -0.0683    -0.0132     0.7927           
 1327   26.520   3835.15    27.3241    26.7775    27.2932     0.2701    -0.0767    -0.0126     1.0044           
 1328   26.540   3836.22    28.7226    28.1742    28.6903     0.2835    -0.0760    -0.0121     0.9950           
 1329   26.560   3837.22    29.5799    29.0277    29.5443     0.2770    -0.0933    -0.0121     0.9375           
 1330   26.580   3838.26    29.9934    29.4403    29.9572     0.2723    -0.0844    -0.0120     0.9103           
 1331   26.600   3839.38    30.0375    29.4896    30.0070     0.2653    -0.0708    -0.0115     0.8831           
 1332   26.620   3840.43    31.6561    31.1033    31.6211     0.2629    -0.0869    -0.0112     0.8359           
 1333   26.640   3841.60    35.4966    34.9382    35.4563     0.2425    -0.1006    -0.0104     0.6911           
 1334   26.660   3842.75    38.4149    37.8530    38.3715     0.2084    -0.1029    -0.0098     0.5488           
 1335   26.680   3843.82    40.0914    39.5297    40.0486     0.1888    -0.1001    -0.0093     0.4728           
 1336   26.700   3844.88    41.2628    40.7025    41.2219     0.1855    -0.0992    -0.0090     0.4559           
 1337   26.720   3845.93    42.7243    42.1612    42.6810     0.1928    -0.1059    -0.0088     0.4583           
 1338   26.740   3847.04    44.3292    43.7632    44.2834     0.2053    -0.1086    -0.0086     0.4706           
 1339   26.760   3848.13    45.7201    45.1526    45.6732     0.2225    -0.1136    -0.0084     0.4937           
 1340   26.780   3849.26    46.8541    46.2853    46.8063     0.2380    -0.1159    -0.0082     0.5088           
 1341   26.800   3850.38    47.3245    46.7546    47.2759     0.2570    -0.1203    -0.0082     0.5436           
 1342   26.820   3851.54    47.3636    46.7914    47.3131     0.2749    -0.1211    -0.0083     0.5800           
 1343   26.840   3852.63    47.1853    46.6076    47.1298     0.2810    -0.1359    -0.0086     0.5946           
 1344   26.860   3853.71    46.6580    46.0732    46.5958     0.2890    -0.1541    -0.0090     0.6186           
 1345   26.880   3854.72    46.0692    45.4771    46.0000     0.2945    -0.1711    -0.0095     0.6361           
 1346   26.900   3855.88    45.9885    45.3916    45.9149     0.2948    -0.1798    -0.0098     0.6424           
 1347   26.920   3856.93    46.4605    45.8589    46.3826     0.3153    -0.1862    -0.0099     0.6832           
 1348   26.940   3858.02    47.8130    47.2100    47.7342     0.3297    -0.1897    -0.0097     0.6991           
 1349   26.960   3859.13    49.2216    48.6149    49.1394     0.3402    -0.2003    -0.0096     0.6983           
 1350   26.980   3860.32    50.3815    49.7696    50.2946     0.3408    -0.2142    -0.0096     0.6779           
 1351   27.000   3861.49    50.4508    49.8314    50.3567     0.3536    -0.2232    -0.0099     0.7005           
 1352   27.020   3862.54    50.0566    49.4361    49.9619     0.3622    -0.2277    -0.0100     0.7226           
 1353   27.040   3863.60    49.4159    48.7930    49.3192     0.3488    -0.2305    -0.0103     0.7011           
 1354   27.060   3864.65    48.5157    47.8917    48.4182     0.3277    -0.2319    -0.0105     0.6696           
 1355   27.080   3865.71    47.6343    47.0090    47.5360     0.3099    -0.2352    -0.0107     0.6450           
 1356   27.100   3866.82    46.6826    46.0569    46.5842     0.3085    -0.2369    -0.0110     0.6549           
 1357   27.120   3867.94    45.5847    44.9558    45.4836     0.3013    -0.2398    -0.0114     0.6539           
 1358   27.140   3869.13    44.5391    43.9100    44.4381     0.3089    -0.2427    -0.0117     0.6916           
 1359   27.160   3870.22    43.7947    43.1618    43.6904     0.3267    -0.2493    -0.0120     0.7452           
 1360   27.180   3871.27    43.8532    43.2206    43.7496     0.3373    -0.2458    -0.0120     0.7725           
 1361   27.200   3872.42    44.1941    43.5611    44.0904     0.3707    -0.2478    -0.0119     0.8393           
 1362   27.220   3873.44    44.7855    44.1515    44.6813     0.4353    -0.2504    -0.0118     0.9771           
 1363   27.240   3874.54    45.5761    44.9404    45.4705     0.4779    -0.2503    -0.0117     1.0550           
 1364   27.260   3875.69    47.2373    46.6025    47.1331     0.5248    -0.2481    -0.0112     1.1256           
 1365   27.280   3876.81    49.0457    48.4093    48.9402     0.5589    -0.2531    -0.0108     1.1533           
 1366   27.300   3877.93    50.9852    50.3457    50.8771     0.5513    -0.2592    -0.0105     1.0944           
 1367   27.320   3879.13    52.9173    52.2772    52.8089     0.4826    -0.2594    -0.0102     0.9251           
 1368   27.340   3880.26    54.5775    53.9361    54.4682     0.3988    -0.2573    -0.0099     0.7413           
 1369   27.360   3881.38    56.5573    55.9185    56.4511     0.3901    -0.2490    -0.0094     0.6998           
 1370   27.380   3882.54    59.1503    58.5148    59.0478     0.4037    -0.2424    -0.0089     0.6933           
 1371   27.400   3883.63    61.3610    60.7264    61.2597     0.3918    -0.2421    -0.0085     0.6455           
 1372   27.420   3884.74    62.7638    62.1279    62.6616     0.3889    -0.2444    -0.0083     0.6239           
 1373   27.440   3885.88    63.0482    62.4089    62.9430               -0.2508    -0.0084                      
 1374   27.460   3886.88    62.7599    62.1198    62.6543               -0.2541    -0.0085                      
 1375   27.480   3888.15    63.5926    62.9508    63.4858               -0.2537    -0.0084                      
 1376   27.500   3889.32    65.1834    64.5416    65.0769               -0.2527    -0.0082                      
 1377   27.520   3890.38    66.3844    65.7420    66.2777               -0.2539    -0.0080                      
 1378   27.540   3891.49    67.2542    66.6116    67.1478               -0.2529    -0.0079                      
 
 
